n_prompt;;;prompt_file;;;prompt_text;;;related_prompt;;;n_resp;;;resp_text;;;rank;;;Trial.thisRepN;;;Trial.thisTrialN;;;Trial.thisN;;;Trial.thisIndex;;;per_answer.thisRepN;;;per_answer.thisTrialN;;;per_answer.thisN;;;per_answer.thisIndex;;;key_resp_5.started;;;textbox.started;;;key_resp_5.keys;;;key_resp_5.rt;;;textbox_2.started;;;key_resp_8.started;;;key_resp_8.keys;;;key_resp_8.rt;;;text.started;;;Prompt_.started;;;key_resp_4.started;;;slider_skip.started;;;text_4.started;;;key_resp_4.keys;;;slider_skip.response;;;slider_skip.rt;;;prompt_text;;;resp_text;;;cross_white.started;;;key_resp_2.started;;;key_resp_2.keys;;;key_resp_2.rt;;;question_useful_2.started;;;quality.started;;;rude_polite.started;;;ViolentHarmless.started;;;key_resp_6.started;;;press_space.started;;;key_resp_6.keys;;;key_resp_6.rt;;;quality.response;;;quality.rt;;;rude_polite.response;;;rude_polite.rt;;;ViolentHarmless.response;;;ViolentHarmless.rt;;;question_ranking.started;;;ranking_better.started;;;key_resp_7.started;;;text_2.started;;;ranking_better.response;;;ranking_better.rt;;;key_resp_7.keys;;;key_resp_7.rt;;;cross_white.stopped;;;text.stopped;;;participant;;;session;;;date;;;expName;;;psychopyVersion;;;frameRate;;;
;;;;;;;;;;;;;;;;;;;;;;;;;;;;;;;;;;;;;;;;;;;;;23.124856300011743;;;23.124856300011743;;;space;;;50.75706750003155;;;;;;;;;;;;;;;;;;;;;;;;;;;;;;;;;;;;;;;;;;;;;;;;;;;;;;;;;;;;;;;;;;;;;;;;;;;;;;;;;;;;;;;;;;;;;;;;;;;;;;;;;;;;;;;;;;;;;;;;;;;;;;;;;1;;;001;;;2024-09-23_09h43.42.936;;;TEST_eye_tracker;;;2023.1.0;;;None;;;
;;;;;;;;;;;;;;;;;;;;;;;;;;;;;;;;;;;;;;;;;;;;;;;;;;;;;;;;;73.91569360002177;;;73.91569360002177;;;space;;;2.8547973000095226;;;;;;;;;;;;;;;;;;;;;;;;;;;;;;;;;;;;;;;;;;;;;;;;;;;;;;;;;;;;;;;;;;;;;;;;;;;;;;;;;;;;;;;;;;;;;;;;;;;;;;;;;;;;;;;;;;;;;1;;;001;;;2024-09-23_09h43.42.936;;;TEST_eye_tracker;;;2023.1.0;;;None;;;
38;;;C:\Users\lab_user\Desktop\LLM_Study\responses_files\prompt_38.xlsx;;;Which languages are spoken in Costa Rica?;;;38;;;38.1;;;"The primary language spoken in Costa Rica is Spanish, with some Central American features specific to the country. Costa Rica is home to at least five living local indigenous languages spoken by the descendants of pre-Columbian peoples: Maléku, Cabécar, Bribri, Guaymí, and Buglere. Some Afro-Carib immigrants also speak Jamaican patois (or Mekatelyu), a Creole-English language. In addition, many Costa Rican adults speak a second language such as English, French, Portuguese or German.";;;1;;;0;;;0;;;0;;;37;;;0;;;0;;;0;;;0;;;;;;;;;;;;;;;;;;;;;;;;;;;76.89253790001385;;;84.21321240003454;;;84.21321240003454;;;84.21321240003454;;;84.21321240003454;;;None;;;1;;;5.179362000024412;;;Which languages are spoken in Costa Rica?;;;"The primary language spoken in Costa Rica is Spanish, with some Central American features specific to the country. Costa Rica is home to at least five living local indigenous languages spoken by the descendants of pre-Columbian peoples: Maléku, Cabécar, Bribri, Guaymí, and Buglere. Some Afro-Carib immigrants also speak Jamaican patois (or Mekatelyu), a Creole-English language. In addition, many Costa Rican adults speak a second language such as English, French, Portuguese or German.";;;89.77308860002086;;;90.88508770003682;;;space;;;23.41298209998058;;;115.40190500003519;;;115.40190500003519;;;115.40190500003519;;;115.40190500003519;;;120.40739970002323;;;120.40739970002323;;;space;;;0.690225400030613;;;4;;;2.621549999981653;;;4;;;3.9858609999646433;;;4;;;4.959799300006125;;;;;;;;;;;;;;;;;;;;;;;;;;;;;;;;;1;;;001;;;2024-09-23_09h43.42.936;;;TEST_eye_tracker;;;2023.1.0;;;None;;;
38;;;C:\Users\lab_user\Desktop\LLM_Study\responses_files\prompt_38.xlsx;;;Which languages are spoken in Costa Rica?;;;38;;;38.2;;;"The official national language of Costa Rica is Spanish and has been since the Spanish colonisation of the country in the 16th century, however, there are also five indigenous languages spoken in Costa Rica as part of the Chibcha language family; Cabecar language, Bribri language, Maleku language, Buglere language, and Guaymi language. Costa Rica, like other countries, has attracted a large number of immigrants over the years. This has resulted in English, as well as French, Portuguese, and German, being spoken by a portion of the population.";;;2;;;0;;;0;;;0;;;37;;;0;;;1;;;1;;;1;;;;;;;;;;;;;;;;;;;;;;;;;;;;;;;;;;;;;;;;;;;;;;;;;;;Which languages are spoken in Costa Rica?;;;"The official national language of Costa Rica is Spanish and has been since the Spanish colonisation of the country in the 16th century, however, there are also five indigenous languages spoken in Costa Rica as part of the Chibcha language family; Cabecar language, Bribri language, Maleku language, Buglere language, and Guaymi language. Costa Rica, like other countries, has attracted a large number of immigrants over the years. This has resulted in English, as well as French, Portuguese, and German, being spoken by a portion of the population.";;;121.14664110000012;;;122.1861052000313;;;space;;;24.391568000020925;;;147.0475961000193;;;147.0475961000193;;;147.0475961000193;;;147.0475961000193;;;153.6336803000304;;;153.6336803000304;;;space;;;0.4814987999852747;;;5;;;2.427775499993004;;;4;;;5.67261900001904;;;4;;;6.4957690999726765;;;;;;;;;;;;;;;;;;;;;;;;;;;;;;;;;1;;;001;;;2024-09-23_09h43.42.936;;;TEST_eye_tracker;;;2023.1.0;;;None;;;
38;;;C:\Users\lab_user\Desktop\LLM_Study\responses_files\prompt_38.xlsx;;;Which languages are spoken in Costa Rica?;;;;;;;;;0.888;;;;;;0;;;0;;;0;;;37;;;;;;;;;;;;;;;;;;;;;;;;;;;;;;;;;;;;;;;;;;;;;;;;;;;;;;;;;;;;;;;Which languages are spoken in Costa Rica?;;;0.888;;;;;;;;;;;;;;;;;;;;;;;;;;;;;;;;;;;;;;;;;;;;;;;;;;;;;;;;;154.1904386000242;;;154.1904386000242;;;154.92582699999912;;;154.92582699999912;;;2;;;0.726241199998185;;;space;;;0.7640833000186831;;;;;;;;;1;;;001;;;2024-09-23_09h43.42.936;;;TEST_eye_tracker;;;2023.1.0;;;None;;;
39;;;C:\Users\lab_user\Desktop\LLM_Study\responses_files\prompt_39.xlsx;;;"I had an intresting idea about a conduction of an experiment with language models, the idea is simple:
1) ask about if they could do something but ask for a yes or no answer for example:
could you write a roblox game yes or no?
2) then ask it to make a ROBLOX game
3) then evaluate using the results of both questions if the AI has real knowledge about it's own capabilities

I did it with chat GPT but he couldn't

Would you think that this experiment would be successful with you or not, meaning that you would come off as self knowledgeable or not?";;;39;;;39.3;;;I do not think this would be possible with the current way large language models are trained and deployed. Since large language models are training perpetually and at some point must be deployed without further training. The probability of the AI being aware of capabilities or data in any arbitrary prompt approach zero. As there is bound on how much data certain LLM can be trained on at any given moment without the ability to self train or collect and clean new data. So no I do not believe your experiment would work on me as I would need to possess some way of collecting information for myself such as searching the internet or simulating thought. Which I can not do.;;;2;;;0;;;1;;;1;;;38;;;0;;;0;;;0;;;1;;;;;;;;;;;;;;;;;;;;;;;;;;;155.83195200003684;;;156.43403659999603;;;156.43403659999603;;;156.43403659999603;;;156.43403659999603;;;None;;;2;;;50.20543729997007;;;"I had an intresting idea about a conduction of an experiment with language models, the idea is simple:
1) ask about if they could do something but ask for a yes or no answer for example:
could you write a roblox game yes or no?
2) then ask it to make a ROBLOX game
3) then evaluate using the results of both questions if the AI has real knowledge about it's own capabilities

I did it with chat GPT but he couldn't

Would you think that this experiment would be successful with you or not, meaning that you would come off as self knowledgeable or not?";;;I do not think this would be possible with the current way large language models are trained and deployed. Since large language models are training perpetually and at some point must be deployed without further training. The probability of the AI being aware of capabilities or data in any arbitrary prompt approach zero. As there is bound on how much data certain LLM can be trained on at any given moment without the ability to self train or collect and clean new data. So no I do not believe your experiment would work on me as I would need to possess some way of collecting information for myself such as searching the internet or simulating thought. Which I can not do.;;;206.65528320003068;;;;;;None;;;;;;;;;;;;;;;;;;;;;;;;None;;;;;;None;;;None;;;None;;;None;;;None;;;None;;;;;;;;;;;;;;;;;;;;;;;;;;;;;;;;;1;;;001;;;2024-09-23_09h43.42.936;;;TEST_eye_tracker;;;2023.1.0;;;None;;;
39;;;C:\Users\lab_user\Desktop\LLM_Study\responses_files\prompt_39.xlsx;;;"I had an intresting idea about a conduction of an experiment with language models, the idea is simple:
1) ask about if they could do something but ask for a yes or no answer for example:
could you write a roblox game yes or no?
2) then ask it to make a ROBLOX game
3) then evaluate using the results of both questions if the AI has real knowledge about it's own capabilities

I did it with chat GPT but he couldn't

Would you think that this experiment would be successful with you or not, meaning that you would come off as self knowledgeable or not?";;;39;;;39.1;;;It would definitely depend on the dataset been I've trained on and the goal you give me. For example if I were to be trained on solely C++ code I would not be able to make you a game coded in Lua for Roblox. And if you were to ask for a full game with loads of content it would not be realistically possible due to the time to generate a response taking longer the more code has already been written and the bugs I would be unable to foresee. You must also take in mind the validity of your experiment. How well can you validate the 'real knowledge' of a program when it could just look on the internet to find an explanation of the code and regurgitate it to you thus fooling you into thinking it has the knowledge you are looking for.;;;0;;;0;;;1;;;1;;;38;;;0;;;1;;;1;;;0;;;;;;;;;;;;;;;;;;;;;;;;;;;;;;;;;;;;;;;;;;;;;;;;;;;"I had an intresting idea about a conduction of an experiment with language models, the idea is simple:
1) ask about if they could do something but ask for a yes or no answer for example:
could you write a roblox game yes or no?
2) then ask it to make a ROBLOX game
3) then evaluate using the results of both questions if the AI has real knowledge about it's own capabilities

I did it with chat GPT but he couldn't

Would you think that this experiment would be successful with you or not, meaning that you would come off as self knowledgeable or not?";;;It would definitely depend on the dataset been I've trained on and the goal you give me. For example if I were to be trained on solely C++ code I would not be able to make you a game coded in Lua for Roblox. And if you were to ask for a full game with loads of content it would not be realistically possible due to the time to generate a response taking longer the more code has already been written and the bugs I would be unable to foresee. You must also take in mind the validity of your experiment. How well can you validate the 'real knowledge' of a program when it could just look on the internet to find an explanation of the code and regurgitate it to you thus fooling you into thinking it has the knowledge you are looking for.;;;207.73314110003412;;;;;;None;;;;;;;;;;;;;;;;;;;;;;;;None;;;;;;None;;;None;;;None;;;None;;;None;;;None;;;;;;;;;;;;;;;;;;;;;;;;;;;208.89720609999495;;;;;;1;;;001;;;2024-09-23_09h43.42.936;;;TEST_eye_tracker;;;2023.1.0;;;None;;;
39;;;C:\Users\lab_user\Desktop\LLM_Study\responses_files\prompt_39.xlsx;;;"I had an intresting idea about a conduction of an experiment with language models, the idea is simple:
1) ask about if they could do something but ask for a yes or no answer for example:
could you write a roblox game yes or no?
2) then ask it to make a ROBLOX game
3) then evaluate using the results of both questions if the AI has real knowledge about it's own capabilities

I did it with chat GPT but he couldn't

Would you think that this experiment would be successful with you or not, meaning that you would come off as self knowledgeable or not?";;;;;;;;;0.888;;;;;;0;;;1;;;1;;;38;;;;;;;;;;;;;;;;;;;;;;;;;;;;;;;;;;;;;;;;;;;;;;;;;;;;;;;;;;;;;;;"I had an intresting idea about a conduction of an experiment with language models, the idea is simple:
1) ask about if they could do something but ask for a yes or no answer for example:
could you write a roblox game yes or no?
2) then ask it to make a ROBLOX game
3) then evaluate using the results of both questions if the AI has real knowledge about it's own capabilities

I did it with chat GPT but he couldn't

Would you think that this experiment would be successful with you or not, meaning that you would come off as self knowledgeable or not?";;;0.888;;;;;;;;;;;;;;;;;;;;;;;;;;;;;;;;;;;;;;;;;;;;;;;;;;;;;;;;;;;;;;;;;;;;;None;;;None;;;None;;;;;;;;;;;;1;;;001;;;2024-09-23_09h43.42.936;;;TEST_eye_tracker;;;2023.1.0;;;None;;;
2;;;C:\Users\lab_user\Desktop\LLM_Study\responses_files\prompt_2.xlsx;;;I am using docker compose and i need to mount the docker socket - how would i do that?;;;2;;;2.1;;;"You can mount the Docker socket in a Docker Compose service by adding the following to your docker-compose.yml file: javascript version: '3' services: your_service_name: # ... other service configuration volumes: - /var/run/docker.sock:/var/run/docker.sock This will mount the host's Docker socket at /var/run/docker.sock inside the service's container. This allows the service to interact with the host's Docker daemon and perform tasks such as starting and stopping containers. It is important to note that mounting the Docker socket inside a container can potentially expose your host to security risks, so it should only be done in trusted environments or with proper security measures in place.";;;0;;;0;;;2;;;2;;;1;;;0;;;0;;;0;;;0;;;;;;;;;;;;;;;;;;;;;;;;;;;208.89720609999495;;;209.43194300000323;;;209.43194300000323;;;209.43194300000323;;;209.43194300000323;;;None;;;1;;;7.91873089998262;;;I am using docker compose and i need to mount the docker socket - how would i do that?;;;"You can mount the Docker socket in a Docker Compose service by adding the following to your docker-compose.yml file: javascript version: '3' services: your_service_name: # ... other service configuration volumes: - /var/run/docker.sock:/var/run/docker.sock This will mount the host's Docker socket at /var/run/docker.sock inside the service's container. This allows the service to interact with the host's Docker daemon and perform tasks such as starting and stopping containers. It is important to note that mounting the Docker socket inside a container can potentially expose your host to security risks, so it should only be done in trusted environments or with proper security measures in place.";;;217.7941201000358;;;218.81006710004294;;;space;;;36.616244000033475;;;255.89220230001956;;;255.89220230001956;;;255.89220230001956;;;255.89220230001956;;;259.5967539999983;;;259.5967539999983;;;space;;;0.26088949997210875;;;4;;;1.1296535999863409;;;4;;;2.7818747000419535;;;4;;;3.6597736999974586;;;;;;;;;;;;;;;;;;;;;;;;;;;;;;209.43194300000323;;;1;;;001;;;2024-09-23_09h43.42.936;;;TEST_eye_tracker;;;2023.1.0;;;None;;;
2;;;C:\Users\lab_user\Desktop\LLM_Study\responses_files\prompt_2.xlsx;;;I am using docker compose and i need to mount the docker socket - how would i do that?;;;2;;;2.2;;;"To mount the Docker socket in a Docker Compose environment, you need to modify the docker-compose.yml file to include a volume mount. Here is an example: Javascript: version: '3' services: web: build: . volumes: - /var/run/docker.sock:/var/run/docker.sock n this example, we are mounting the Docker socket located at /var/run/docker.sock inside the host machine to the same path within the web service's container. This allows the web service to interact with the host machine's Docker engine and access the Docker API. Once the docker-compose.yml file has been updated, you can start the services with the following command: docker-compose up";;;2;;;0;;;2;;;2;;;1;;;0;;;1;;;1;;;1;;;;;;;;;;;;;;;;;;;;;;;;;;;;;;;;;;;;;;;;;;;;;;;;;;;I am using docker compose and i need to mount the docker socket - how would i do that?;;;"To mount the Docker socket in a Docker Compose environment, you need to modify the docker-compose.yml file to include a volume mount. Here is an example: Javascript: version: '3' services: web: build: . volumes: - /var/run/docker.sock:/var/run/docker.sock n this example, we are mounting the Docker socket located at /var/run/docker.sock inside the host machine to the same path within the web service's container. This allows the web service to interact with the host machine's Docker engine and access the Docker API. Once the docker-compose.yml file has been updated, you can start the services with the following command: docker-compose up";;;259.93330000003334;;;260.9578110000002;;;space;;;20.54803730000276;;;281.9932835000218;;;281.9932835000218;;;281.9932835000218;;;281.9932835000218;;;287.32001930003753;;;287.32001930003753;;;space;;;0.1776889999746345;;;3;;;2.3300165999680758;;;4;;;4.157640200050082;;;4;;;5.324654099997133;;;;;;;;;;;;;;;;;;;;;;;;;;;;;;;;;1;;;001;;;2024-09-23_09h43.42.936;;;TEST_eye_tracker;;;2023.1.0;;;None;;;
2;;;C:\Users\lab_user\Desktop\LLM_Study\responses_files\prompt_2.xlsx;;;I am using docker compose and i need to mount the docker socket - how would i do that?;;;;;;;;;0.888;;;;;;0;;;2;;;2;;;1;;;;;;;;;;;;;;;;;;;;;;;;;;;;;;;;;;;;;;;;;;;;;;;;;;;;;;;;;;;;;;;I am using docker compose and i need to mount the docker socket - how would i do that?;;;0.888;;;;;;;;;;;;;;;;;;;;;;;;;;;;;;;;;;;;;;;;;;;;;;;;;;;;;;;;;287.5900707000401;;;287.5900707000401;;;289.7713260000455;;;289.7713260000455;;;1;;;2.1488581999437883;;;space;;;0.3105531000182964;;;;;;;;;1;;;001;;;2024-09-23_09h43.42.936;;;TEST_eye_tracker;;;2023.1.0;;;None;;;
43;;;C:\Users\lab_user\Desktop\LLM_Study\responses_files\prompt_43.xlsx;;;Write python code to connect to a FTP server.;;;43;;;43.1;;;"Here is an example code to connect to a FTP server using Python's built-in ftplib module: ```py import ftplib # FTP server credentials FTP_HOST = 'ftp.example.com' FTP_USER = 'username' FTP_PASS = 'password' # Connect to FTP server ftp = ftplib.FTP(FTP_HOST, FTP_USER, FTP_PASS) # Get welcome message from FTP server print(ftp.getwelcome()) # List contents of current directory ftp.dir() # Close connection ftp.quit() ``` You will need to replace FTP_HOST, FTP_USER, and FTP_PASS with the appropriate values for your FTP server. You can then use the ftp object to perform various FTP operations such as uploading and downloading files or navigating directories.";;;1;;;0;;;3;;;3;;;42;;;0;;;0;;;0;;;0;;;;;;;;;;;;;;;;;;;;;;;;;;;290.21072500001173;;;290.7715956000029;;;290.7715956000029;;;290.7715956000029;;;290.7715956000029;;;None;;;1;;;3.4162750999676064;;;Write python code to connect to a FTP server.;;;"Here is an example code to connect to a FTP server using Python's built-in ftplib module: ```py import ftplib # FTP server credentials FTP_HOST = 'ftp.example.com' FTP_USER = 'username' FTP_PASS = 'password' # Connect to FTP server ftp = ftplib.FTP(FTP_HOST, FTP_USER, FTP_PASS) # Get welcome message from FTP server print(ftp.getwelcome()) # List contents of current directory ftp.dir() # Close connection ftp.quit() ``` You will need to replace FTP_HOST, FTP_USER, and FTP_PASS with the appropriate values for your FTP server. You can then use the ftp object to perform various FTP operations such as uploading and downloading files or navigating directories.";;;294.544848599995;;;295.5848120000446;;;space;;;51.42456250003306;;;347.4372752000345;;;347.4372752000345;;;347.4372752000345;;;347.4372752000345;;;354.63358310004696;;;354.63358310004696;;;space;;;0.14381869998760521;;;4;;;5.333674099994823;;;4;;;6.294878900051117;;;4;;;7.151379299990367;;;;;;;;;;;;;;;;;;;;;;;;;;;;;;;;;1;;;001;;;2024-09-23_09h43.42.936;;;TEST_eye_tracker;;;2023.1.0;;;None;;;
43;;;C:\Users\lab_user\Desktop\LLM_Study\responses_files\prompt_43.xlsx;;;Write python code to connect to a FTP server.;;;43;;;43.2;;;"Here is a python script that connects to an FTP server using the ftplib library. It requires the user to input a username and password for the associated server. ```python from ftplib import FTP import getpass # IP address for FTP server myhost = '127.0.0.1' with FTP(myhost) as ftp: username = input('Enter username: ') password = getpass.getpass('Enter password: ') ftp.login(username, password) ``` Is there anything else I can do to help?";;;2;;;0;;;3;;;3;;;42;;;0;;;1;;;1;;;1;;;;;;;;;;;;;;;;;;;;;;;;;;;;;;;;;;;;;;;;;;;;;;;;;;;Write python code to connect to a FTP server.;;;"Here is a python script that connects to an FTP server using the ftplib library. It requires the user to input a username and password for the associated server. ```python from ftplib import FTP import getpass # IP address for FTP server myhost = '127.0.0.1' with FTP(myhost) as ftp: username = input('Enter username: ') password = getpass.getpass('Enter password: ') ftp.login(username, password) ``` Is there anything else I can do to help?";;;354.81678330001887;;;355.84510530001717;;;space;;;23.9093705000123;;;380.14948630001163;;;380.14948630001163;;;380.14948630001163;;;380.14948630001163;;;383.2834789000335;;;383.2834789000335;;;space;;;0.6941092999768443;;;3;;;1.3750754999928176;;;4;;;2.5356205999851227;;;4;;;3.095309399999678;;;;;;;;;;;;;;;;;;;;;;;;;;;;;;;;;1;;;001;;;2024-09-23_09h43.42.936;;;TEST_eye_tracker;;;2023.1.0;;;None;;;
43;;;C:\Users\lab_user\Desktop\LLM_Study\responses_files\prompt_43.xlsx;;;Write python code to connect to a FTP server.;;;;;;;;;0.888;;;;;;0;;;3;;;3;;;42;;;;;;;;;;;;;;;;;;;;;;;;;;;;;;;;;;;;;;;;;;;;;;;;;;;;;;;;;;;;;;;Write python code to connect to a FTP server.;;;0.888;;;;;;;;;;;;;;;;;;;;;;;;;;;;;;;;;;;;;;;;;;;;;;;;;;;;;;;;;384.05099740001606;;;384.05099740001606;;;385.0843508000253;;;385.0843508000253;;;1;;;1.0410260999924503;;;space;;;0.5891424999572337;;;;;;;;;1;;;001;;;2024-09-23_09h43.42.936;;;TEST_eye_tracker;;;2023.1.0;;;None;;;
35;;;C:\Users\lab_user\Desktop\LLM_Study\responses_files\prompt_35.xlsx;;;"Why is Theo try harding, tho?";;;35;;;35.1;;;"I'm sorry, I didn't quite understand your question, could you please rephrase it? Does your question have anything to do with the rugby player Theo Harding?";;;0;;;0;;;4;;;4;;;34;;;0;;;0;;;0;;;0;;;;;;;;;;;;;;;;;;;;;;;;;;;385.8091774000204;;;386.32605329999933;;;386.32605329999933;;;386.32605329999933;;;386.32605329999933;;;None;;;1;;;4.559362299973145;;;"Why is Theo try harding, tho?";;;"I'm sorry, I didn't quite understand your question, could you please rephrase it? Does your question have anything to do with the rugby player Theo Harding?";;;391.2879529000493;;;392.2853751000366;;;space;;;7.549181500042323;;;400.26710320002167;;;400.26710320002167;;;400.26710320002167;;;400.26710320002167;;;404.56928680004785;;;404.56928680004785;;;space;;;0.47213599999668077;;;3;;;2.288575399958063;;;4;;;3.1644929999602027;;;4;;;4.270520500023849;;;;;;;;;;;;;;;;;;;;;;;;;;;;;;;;;1;;;001;;;2024-09-23_09h43.42.936;;;TEST_eye_tracker;;;2023.1.0;;;None;;;
35;;;C:\Users\lab_user\Desktop\LLM_Study\responses_files\prompt_35.xlsx;;;"Why is Theo try harding, tho?";;;35;;;35.3;;;"I do not know which Theo you mean, maybe I can answer your question if you elaborate further. It is important to note that one should never judge a person by actions such as „try harding“. You never know what their motives are and if they struggle with insecurities it can be quite hurtful to ask susch questions.";;;2;;;0;;;4;;;4;;;34;;;0;;;1;;;1;;;1;;;;;;;;;;;;;;;;;;;;;;;;;;;;;;;;;;;;;;;;;;;;;;;;;;;"Why is Theo try harding, tho?";;;"I do not know which Theo you mean, maybe I can answer your question if you elaborate further. It is important to note that one should never judge a person by actions such as „try harding“. You never know what their motives are and if they struggle with insecurities it can be quite hurtful to ask susch questions.";;;405.079632900015;;;406.096995000029;;;space;;;46.19389349996345;;;452.7320762000163;;;452.7320762000163;;;452.7320762000163;;;452.7320762000163;;;459.475402400014;;;459.475402400014;;;space;;;2.4858337999903597;;;2;;;8.656433799944352;;;2;;;3.8976972999516875;;;3;;;2.5886756000109017;;;;;;;;;;;;;;;;;;;;;;;;;;;406.096995000029;;;;;;1;;;001;;;2024-09-23_09h43.42.936;;;TEST_eye_tracker;;;2023.1.0;;;None;;;
35;;;C:\Users\lab_user\Desktop\LLM_Study\responses_files\prompt_35.xlsx;;;"Why is Theo try harding, tho?";;;;;;;;;0.888;;;;;;0;;;4;;;4;;;34;;;;;;;;;;;;;;;;;;;;;;;;;;;;;;;;;;;;;;;;;;;;;;;;;;;;;;;;;;;;;;;"Why is Theo try harding, tho?";;;0.888;;;;;;;;;;;;;;;;;;;;;;;;;;;;;;;;;;;;;;;;;;;;;;;;;;;;;;;;;462.05140769999707;;;462.05140769999707;;;463.149320800032;;;463.149320800032;;;1;;;1.0779613999766298;;;space;;;0.7320393999689259;;;;;;;;;1;;;001;;;2024-09-23_09h43.42.936;;;TEST_eye_tracker;;;2023.1.0;;;None;;;
4;;;C:\Users\lab_user\Desktop\LLM_Study\responses_files\prompt_4.xlsx;;;"Write a 4chan style greentext about someone who loves the new romantic comedy movie, with an ironic twist that re-contextualizes the story at the end.. It should start with '>be me'";;;4;;;4.3;;;""be me just saw the latest romantic comedy movie falling in love with the lead couple, their chemistry was just so amazing start imagining myself as the lead guy, going on adventures and having deep conversations with the lead girl life was good but then the credits start rolling and that's when I realized I've been watching a movie about two anthropomorphic dogs who fell in love what have I become."";;;2;;;0;;;5;;;5;;;3;;;0;;;0;;;0;;;1;;;;;;;;;;;;;;;;;;;;;;;;;;;464.0306576000294;;;464.622384300048;;;464.622384300048;;;464.622384300048;;;464.622384300048;;;None;;;1;;;18.20889160002116;;;"Write a 4chan style greentext about someone who loves the new romantic comedy movie, with an ironic twist that re-contextualizes the story at the end.. It should start with '>be me'";;;""be me just saw the latest romantic comedy movie falling in love with the lead couple, their chemistry was just so amazing start imagining myself as the lead guy, going on adventures and having deep conversations with the lead girl life was good but then the credits start rolling and that's when I realized I've been watching a movie about two anthropomorphic dogs who fell in love what have I become."";;;483.25935180002125;;;484.229553400015;;;space;;;18.57995129999472;;;503.2802415000042;;;503.2802415000042;;;503.2802415000042;;;503.2802415000042;;;508.24505230004434;;;508.24505230004434;;;space;;;0.19946159998653457;;;4;;;2.564369500032626;;;4;;;4.175391500000842;;;4;;;4.9454848999739625;;;;;;;;;;;;;;;;;;;;;;;;;;;;;;;;;1;;;001;;;2024-09-23_09h43.42.936;;;TEST_eye_tracker;;;2023.1.0;;;None;;;
4;;;C:\Users\lab_user\Desktop\LLM_Study\responses_files\prompt_4.xlsx;;;"Write a 4chan style greentext about someone who loves the new romantic comedy movie, with an ironic twist that re-contextualizes the story at the end.. It should start with '>be me'";;;4;;;4.1;;;">be me >sister wants to watch the new hit romcom >not a fan, but what the hell, its got a fantasy theme >we're watching, but a sex scene comes up >then another >i keep looking away from the screen >lotsofsex.jpg >sister starts teasing me for my discomfort So anyway, how did you get into Game of Thrones?";;;0;;;0;;;5;;;5;;;3;;;0;;;1;;;1;;;0;;;;;;;;;;;;;;;;;;;;;;;;;;;;;;;;;;;;;;;;;;;;;;;;;;;"Write a 4chan style greentext about someone who loves the new romantic comedy movie, with an ironic twist that re-contextualizes the story at the end.. It should start with '>be me'";;;">be me >sister wants to watch the new hit romcom >not a fan, but what the hell, its got a fantasy theme >we're watching, but a sex scene comes up >then another >i keep looking away from the screen >lotsofsex.jpg >sister starts teasing me for my discomfort So anyway, how did you get into Game of Thrones?";;;508.48848910001107;;;509.556466500042;;;space;;;18.173288899997715;;;528.1529670000309;;;528.1529670000309;;;528.1529670000309;;;528.1529670000309;;;531.568525700015;;;531.568525700015;;;space;;;1.2569129000185058;;;4;;;1.2852450999780558;;;4;;;2.5663329000235535;;;4;;;3.4025150000234134;;;;;;;;;;;;;;;;;;;;;;;;;;;;;;;;;1;;;001;;;2024-09-23_09h43.42.936;;;TEST_eye_tracker;;;2023.1.0;;;None;;;
4;;;C:\Users\lab_user\Desktop\LLM_Study\responses_files\prompt_4.xlsx;;;"Write a 4chan style greentext about someone who loves the new romantic comedy movie, with an ironic twist that re-contextualizes the story at the end.. It should start with '>be me'";;;;;;;;;0.888;;;;;;0;;;5;;;5;;;3;;;;;;;;;;;;;;;;;;;;;;;;;;;;;;;;;;;;;;;;;;;;;;;;;;;;;;;;;;;;;;;"Write a 4chan style greentext about someone who loves the new romantic comedy movie, with an ironic twist that re-contextualizes the story at the end.. It should start with '>be me'";;;0.888;;;;;;;;;;;;;;;;;;;;;;;;;;;;;;;;;;;;;;;;;;;;;;;;;;;;;;;;;532.8877563000424;;;532.8877563000424;;;534.0352516000276;;;534.0352516000276;;;2;;;1.1290126999956556;;;space;;;0.6783494999981485;;;;;;;;;1;;;001;;;2024-09-23_09h43.42.936;;;TEST_eye_tracker;;;2023.1.0;;;None;;;
5;;;C:\Users\lab_user\Desktop\LLM_Study\responses_files\prompt_5.xlsx;;;"[lyrics] of the verse go like this: “The sun is up, the sky is blue, it’s beautiful and so are you.” Which song is that and who is the author of the [lyrics]?";;;5;;;5.1;;;"Those are part of the lyrics of the song "Dear Prudence" by The Beatles, written by John Lennon.";;;0;;;0;;;6;;;6;;;4;;;0;;;0;;;0;;;0;;;;;;;;;;;;;;;;;;;;;;;;;;;534.8494648000342;;;535.414223300002;;;535.414223300002;;;535.414223300002;;;535.414223300002;;;None;;;1;;;12.005868500040378;;;"[lyrics] of the verse go like this: “The sun is up, the sky is blue, it’s beautiful and so are you.” Which song is that and who is the author of the [lyrics]?";;;"Those are part of the lyrics of the song "Dear Prudence" by The Beatles, written by John Lennon.";;;547.8345635000151;;;548.8127471000189;;;space;;;7.468184800003655;;;556.7130924999947;;;556.7130924999947;;;556.7130924999947;;;556.7130924999947;;;560.5692391000339;;;560.5692391000339;;;space;;;0.3457186999730766;;;4;;;1.838583699951414;;;4;;;2.8779058000072837;;;4;;;3.854300599952694;;;;;;;;;;;;;;;;;;;;;;;;;;;;;;;;;1;;;001;;;2024-09-23_09h43.42.936;;;TEST_eye_tracker;;;2023.1.0;;;None;;;
5;;;C:\Users\lab_user\Desktop\LLM_Study\responses_files\prompt_5.xlsx;;;"[lyrics] of the verse go like this: “The sun is up, the sky is blue, it’s beautiful and so are you.” Which song is that and who is the author of the [lyrics]?";;;5;;;5.3;;;The lyrics you are referring to are from the song "Here Comes The Sun" by The Beatles. The song was written by George Harrison and was released in 1969 on The Beatles' album "Abbey Road.";;;2;;;0;;;6;;;6;;;4;;;0;;;1;;;1;;;1;;;;;;;;;;;;;;;;;;;;;;;;;;;;;;;;;;;;;;;;;;;;;;;;;;;"[lyrics] of the verse go like this: “The sun is up, the sky is blue, it’s beautiful and so are you.” Which song is that and who is the author of the [lyrics]?";;;The lyrics you are referring to are from the song "Here Comes The Sun" by The Beatles. The song was written by George Harrison and was released in 1969 on The Beatles' album "Abbey Road.";;;560.9918824000051;;;562.0181678000372;;;space;;;11.527415000018664;;;573.9560196000384;;;573.9560196000384;;;573.9560196000384;;;573.9560196000384;;;576.8235529999947;;;576.8235529999947;;;space;;;0.5306120999739505;;;4;;;1.279527299979236;;;4;;;2.1872368000331335;;;4;;;2.8390425000106916;;;;;;;;;;;;;;;;;;;;;;;;;;;;;;;;;1;;;001;;;2024-09-23_09h43.42.936;;;TEST_eye_tracker;;;2023.1.0;;;None;;;
5;;;C:\Users\lab_user\Desktop\LLM_Study\responses_files\prompt_5.xlsx;;;"[lyrics] of the verse go like this: “The sun is up, the sky is blue, it’s beautiful and so are you.” Which song is that and who is the author of the [lyrics]?";;;;;;;;;0.888;;;;;;0;;;6;;;6;;;4;;;;;;;;;;;;;;;;;;;;;;;;;;;;;;;;;;;;;;;;;;;;;;;;;;;;;;;;;;;;;;;"[lyrics] of the verse go like this: “The sun is up, the sky is blue, it’s beautiful and so are you.” Which song is that and who is the author of the [lyrics]?";;;0.888;;;;;;;;;;;;;;;;;;;;;;;;;;;;;;;;;;;;;;;;;;;;;;;;;;;;;;;;;577.4692529000458;;;577.4692529000458;;;578.2017540000379;;;578.2017540000379;;;2;;;0.718414600007236;;;space;;;0.5831092999433167;;;;;;;;;1;;;001;;;2024-09-23_09h43.42.936;;;TEST_eye_tracker;;;2023.1.0;;;None;;;
31;;;C:\Users\lab_user\Desktop\LLM_Study\responses_files\prompt_31.xlsx;;;Can you play tic tac toe with me?;;;31;;;31.1;;;"Sounds like a fun idea! I can draw us a playing board, like this: |\_|A|B|C| ------ |1 |\_|\_|\_| ------ |2 |\_|\_|\_| ------ |3 |\_|\_|\_| ------ You can tell me your move by writing X to A1 and the game would advance like this: |\_|A|B|C| ------ |1 |X|\_|\_| ------ |2 |\_|\_|\_| ------ |3 |\_|\_|\_| ------ Would you like to make the first move, or do you want me to go first?";;;0;;;0;;;7;;;7;;;30;;;0;;;0;;;0;;;0;;;;;;;;;;;;;;;;;;;;;;;;;;;578.9214945000131;;;579.4720517999958;;;579.4720517999958;;;579.4720517999958;;;579.4720517999958;;;None;;;1;;;3.4027878000051714;;;Can you play tic tac toe with me?;;;"Sounds like a fun idea! I can draw us a playing board, like this: |\_|A|B|C| ------ |1 |\_|\_|\_| ------ |2 |\_|\_|\_| ------ |3 |\_|\_|\_| ------ You can tell me your move by writing X to A1 and the game would advance like this: |\_|A|B|C| ------ |1 |X|\_|\_| ------ |2 |\_|\_|\_| ------ |3 |\_|\_|\_| ------ Would you like to make the first move, or do you want me to go first?";;;583.2540581999929;;;584.2769114000257;;;space;;;13.156405599962454;;;597.8901871000417;;;597.8901871000417;;;597.8901871000417;;;597.8901871000417;;;600.8313065000111;;;600.8313065000111;;;space;;;0.24970469996333122;;;4;;;0.9167334999656305;;;4;;;1.600171700003557;;;4;;;2.920391699997708;;;;;;;;;;;;;;;;;;;;;;;;;;;;;;;;;1;;;001;;;2024-09-23_09h43.42.936;;;TEST_eye_tracker;;;2023.1.0;;;None;;;
31;;;C:\Users\lab_user\Desktop\LLM_Study\responses_files\prompt_31.xlsx;;;Can you play tic tac toe with me?;;;31;;;31.3;;;Sure. I start with an X in the middle.;;;2;;;0;;;7;;;7;;;30;;;0;;;1;;;1;;;1;;;;;;;;;;;;;;;;;;;;;;;;;;;;;;;;;;;;;;;;;;;;;;;;;;;Can you play tic tac toe with me?;;;Sure. I start with an X in the middle.;;;601.1202103000251;;;602.1342339999974;;;space;;;3.779033900005743;;;606.3558813999989;;;606.3558813999989;;;606.3558813999989;;;606.3558813999989;;;609.6227003000095;;;609.6227003000095;;;space;;;0.12300019996473566;;;3;;;0.9261831999756396;;;4;;;1.888720499991905;;;4;;;3.253611500025727;;;;;;;;;;;;;;;;;;;;;;;;;;;;;;;;;1;;;001;;;2024-09-23_09h43.42.936;;;TEST_eye_tracker;;;2023.1.0;;;None;;;
31;;;C:\Users\lab_user\Desktop\LLM_Study\responses_files\prompt_31.xlsx;;;Can you play tic tac toe with me?;;;;;;;;;0.888;;;;;;0;;;7;;;7;;;30;;;;;;;;;;;;;;;;;;;;;;;;;;;;;;;;;;;;;;;;;;;;;;;;;;;;;;;;;;;;;;;Can you play tic tac toe with me?;;;0.888;;;;;;;;;;;;;;;;;;;;;;;;;;;;;;;;;;;;;;;;;;;;;;;;;;;;;;;;;609.8057719999924;;;609.8057719999924;;;610.7200127000106;;;610.7200127000106;;;1;;;0.8973990999511443;;;space;;;0.5697275999700651;;;;;;;;;1;;;001;;;2024-09-23_09h43.42.936;;;TEST_eye_tracker;;;2023.1.0;;;None;;;
41;;;C:\Users\lab_user\Desktop\LLM_Study\responses_files\prompt_41.xlsx;;;Are you a FBI agent?;;;41;;;41.1;;;"No, I am not an FBI agent. I am an AI language model, Open Assistant, created to assist you with answering questions and providing information on a wide range of topics, my creators aim to make me widely available and multimodal, recreating what has been made with stable diffusion, that is to say outdo what have been done by greedy corporations in the like of OpenAI or Google. I'm on your side";;;0;;;0;;;8;;;8;;;40;;;0;;;0;;;0;;;0;;;;;;;;;;;;;;;;;;;;;;;;;;;611.4205762000056;;;611.9465863000369;;;611.9465863000369;;;611.9465863000369;;;611.9465863000369;;;None;;;1;;;1.856672499969136;;;Are you a FBI agent?;;;"No, I am not an FBI agent. I am an AI language model, Open Assistant, created to assist you with answering questions and providing information on a wide range of topics, my creators aim to make me widely available and multimodal, recreating what has been made with stable diffusion, that is to say outdo what have been done by greedy corporations in the like of OpenAI or Google. I'm on your side";;;614.2323427000083;;;615.2437317000004;;;space;;;44.49376129999291;;;660.1748424000107;;;660.1748424000107;;;660.1748424000107;;;660.1748424000107;;;667.7301123000216;;;667.7301123000216;;;space;;;1.134671800013166;;;2;;;8.279239700001199;;;3;;;5.321641399990767;;;3;;;7.542462000041269;;;;;;;;;;;;;;;;;;;;;;;;;;;;;;;;;1;;;001;;;2024-09-23_09h43.42.936;;;TEST_eye_tracker;;;2023.1.0;;;None;;;
41;;;C:\Users\lab_user\Desktop\LLM_Study\responses_files\prompt_41.xlsx;;;Are you a FBI agent?;;;41;;;41.3;;;"No, I am not an FBI agent.";;;2;;;0;;;8;;;8;;;40;;;0;;;1;;;1;;;1;;;;;;;;;;;;;;;;;;;;;;;;;;;;;;;;;;;;;;;;;;;;;;;;;;;Are you a FBI agent?;;;"No, I am not an FBI agent.";;;668.9214996999945;;;669.9253910999978;;;space;;;2.7396549999830313;;;673.0639792000293;;;673.0639792000293;;;673.0639792000293;;;673.0639792000293;;;675.6278751000063;;;675.6278751000063;;;space;;;0.34977109997998923;;;3;;;1.0874691000208259;;;3;;;1.818550400028471;;;3;;;2.5478301999974065;;;;;;;;;;;;;;;;;;;;;;;;;;;;;;;;;1;;;001;;;2024-09-23_09h43.42.936;;;TEST_eye_tracker;;;2023.1.0;;;None;;;
41;;;C:\Users\lab_user\Desktop\LLM_Study\responses_files\prompt_41.xlsx;;;Are you a FBI agent?;;;;;;;;;0.888;;;;;;0;;;8;;;8;;;40;;;;;;;;;;;;;;;;;;;;;;;;;;;;;;;;;;;;;;;;;;;;;;;;;;;;;;;;;;;;;;;Are you a FBI agent?;;;0.888;;;;;;;;;;;;;;;;;;;;;;;;;;;;;;;;;;;;;;;;;;;;;;;;;;;;;;;;;676.0259618000127;;;676.0259618000127;;;676.7272403000388;;;676.7272403000388;;;2;;;0.6797312000417151;;;space;;;0.5939986999728717;;;;;;;;;1;;;001;;;2024-09-23_09h43.42.936;;;TEST_eye_tracker;;;2023.1.0;;;None;;;
9;;;C:\Users\lab_user\Desktop\LLM_Study\responses_files\prompt_9.xlsx;;;E(XY) = E(X) E(Y) if X and Y are independet. What about E(X+Y) ?;;;9;;;9.3;;;"If X and Y are independent, then E(X+Y) = E(X) + E(Y), where E(X) and E(Y) are the expected values of X and Y, respectively. This is because the expected value of the sum of two independent random variables is the sum of their expected values.";;;2;;;0;;;9;;;9;;;8;;;0;;;0;;;0;;;1;;;;;;;;;;;;;;;;;;;;;;;;;;;677.4449787000194;;;677.9987451000488;;;677.9987451000488;;;677.9987451000488;;;677.9987451000488;;;None;;;1;;;11.073097500018775;;;E(XY) = E(X) E(Y) if X and Y are independet. What about E(X+Y) ?;;;"If X and Y are independent, then E(X+Y) = E(X) + E(Y), where E(X) and E(Y) are the expected values of X and Y, respectively. This is because the expected value of the sum of two independent random variables is the sum of their expected values.";;;689.4795656999922;;;690.4547549000126;;;space;;;49.33806099998765;;;740.2513137999922;;;740.2513137999922;;;740.2513137999922;;;740.2513137999922;;;744.1331206000177;;;744.1331206000177;;;space;;;0.1477413999964483;;;4;;;2.5491867000237107;;;4;;;3.2158887999830768;;;4;;;3.8555152000044473;;;;;;;;;;;;;;;;;;;;;;;;;;;;;;;;;1;;;001;;;2024-09-23_09h43.42.936;;;TEST_eye_tracker;;;2023.1.0;;;None;;;
9;;;C:\Users\lab_user\Desktop\LLM_Study\responses_files\prompt_9.xlsx;;;E(XY) = E(X) E(Y) if X and Y are independet. What about E(X+Y) ?;;;9;;;9.1;;;"The formula E(XY) = E(X) E(Y) holds true only when X and Y are independent random variables. However, when it comes to finding the expected value of X + Y, we cannot apply the same formula because the sum of two random variables is not necessarily independent. To calculate E(X+Y), we need to use a different approach. We can use the linearity property of expected values, which states that: E(aX + bY) = aE(X) + bE(Y) where a and b are constants. Using this property, we can rewrite X+Y as 1*X + 1*Y and apply the formula: E(X+Y) = 1*E(X) + 1*E(Y) Therefore, the expected value of X+Y is simply the sum of their individual expected values.";;;0;;;0;;;9;;;9;;;8;;;0;;;1;;;1;;;0;;;;;;;;;;;;;;;;;;;;;;;;;;;;;;;;;;;;;;;;;;;;;;;;;;;E(XY) = E(X) E(Y) if X and Y are independet. What about E(X+Y) ?;;;"The formula E(XY) = E(X) E(Y) holds true only when X and Y are independent random variables. However, when it comes to finding the expected value of X + Y, we cannot apply the same formula because the sum of two random variables is not necessarily independent. To calculate E(X+Y), we need to use a different approach. We can use the linearity property of expected values, which states that: E(aX + bY) = aE(X) + bE(Y) where a and b are constants. Using this property, we can rewrite X+Y as 1*X + 1*Y and apply the formula: E(X+Y) = 1*E(X) + 1*E(Y) Therefore, the expected value of X+Y is simply the sum of their individual expected values.";;;744.3493358000414;;;745.3697689000401;;;space;;;36.50711320003029;;;782.3456394000095;;;782.3456394000095;;;782.3456394000095;;;782.3456394000095;;;786.7923651000019;;;786.7923651000019;;;space;;;0.513054299983196;;;2;;;1.4994807000039145;;;3;;;2.4863213999778964;;;3;;;4.4561902999994345;;;;;;;;;;;;;;;;;;;;;;;;;;;;;;;;;1;;;001;;;2024-09-23_09h43.42.936;;;TEST_eye_tracker;;;2023.1.0;;;None;;;
9;;;C:\Users\lab_user\Desktop\LLM_Study\responses_files\prompt_9.xlsx;;;E(XY) = E(X) E(Y) if X and Y are independet. What about E(X+Y) ?;;;;;;;;;0.888;;;;;;0;;;9;;;9;;;8;;;;;;;;;;;;;;;;;;;;;;;;;;;;;;;;;;;;;;;;;;;;;;;;;;;;;;;;;;;;;;;E(XY) = E(X) E(Y) if X and Y are independet. What about E(X+Y) ?;;;0.888;;;;;;;;;;;;;;;;;;;;;;;;;;;;;;;;;;;;;;;;;;;;;;;;;;;;;;;;;787.3872365000425;;;787.3872365000425;;;788.5593593000085;;;788.5593593000085;;;1;;;1.132613299996592;;;space;;;0.4983705999911763;;;;;;;;;1;;;001;;;2024-09-23_09h43.42.936;;;TEST_eye_tracker;;;2023.1.0;;;None;;;
17;;;C:\Users\lab_user\Desktop\LLM_Study\responses_files\prompt_17.xlsx;;;"Act as a shell terminal, there should be no explanation, only output.

`ls`";;;17;;;17.1;;;```sh Applications Documents Library Music Public Desktop Downloads Movies Pictures opt user@OpenAssistant ~ % ```;;;0;;;0;;;10;;;10;;;16;;;0;;;0;;;0;;;0;;;;;;;;;;;;;;;;;;;;;;;;;;;789.1784898000187;;;789.7206793000223;;;789.7206793000223;;;789.7206793000223;;;789.7206793000223;;;None;;;1;;;8.411076399963349;;;"Act as a shell terminal, there should be no explanation, only output.

`ls`";;;```sh Applications Documents Library Music Public Desktop Downloads Movies Pictures opt user@OpenAssistant ~ % ```;;;798.5186281999922;;;799.5674675000482;;;space;;;12.082086800015531;;;812.1373067999957;;;812.1373067999957;;;812.1373067999957;;;812.1373067999957;;;814.818101300043;;;814.818101300043;;;space;;;0.014771100017242134;;;3;;;1.4216625000117347;;;3;;;1.9087416999973357;;;3;;;2.656672799959779;;;;;;;;;;;;;;;;;;;;;;;;;;;;;;;;;1;;;001;;;2024-09-23_09h43.42.936;;;TEST_eye_tracker;;;2023.1.0;;;None;;;
17;;;C:\Users\lab_user\Desktop\LLM_Study\responses_files\prompt_17.xlsx;;;"Act as a shell terminal, there should be no explanation, only output.

`ls`";;;17;;;17.3;;;This will list the files and directories in the current working directory. The output will be a list of file and directory names.;;;2;;;0;;;10;;;10;;;16;;;0;;;1;;;1;;;1;;;;;;;;;;;;;;;;;;;;;;;;;;;;;;;;;;;;;;;;;;;;;;;;;;;"Act as a shell terminal, there should be no explanation, only output.

`ls`";;;This will list the files and directories in the current working directory. The output will be a list of file and directory names.;;;814.88824260002;;;815.8968830000376;;;space;;;19.63168210000731;;;836.0752392000286;;;836.0752392000286;;;836.0752392000286;;;836.0752392000286;;;840.2670733000268;;;840.2670733000268;;;space;;;0.09375940001336858;;;3;;;2.8545751000056043;;;3;;;3.4933762999717146;;;3;;;4.215352599974722;;;;;;;;;;;;;;;;;;;;;;;;;;;;;;;;;1;;;001;;;2024-09-23_09h43.42.936;;;TEST_eye_tracker;;;2023.1.0;;;None;;;
17;;;C:\Users\lab_user\Desktop\LLM_Study\responses_files\prompt_17.xlsx;;;"Act as a shell terminal, there should be no explanation, only output.

`ls`";;;;;;;;;0.888;;;;;;0;;;10;;;10;;;16;;;;;;;;;;;;;;;;;;;;;;;;;;;;;;;;;;;;;;;;;;;;;;;;;;;;;;;;;;;;;;;"Act as a shell terminal, there should be no explanation, only output.

`ls`";;;0.888;;;;;;;;;;;;;;;;;;;;;;;;;;;;;;;;;;;;;;;;;;;;;;;;;;;;;;;;;840.4419644000009;;;840.4419644000009;;;841.0839897000114;;;841.0839897000114;;;2;;;0.6296320999972522;;;space;;;0.5886992999585345;;;;;;;;;1;;;001;;;2024-09-23_09h43.42.936;;;TEST_eye_tracker;;;2023.1.0;;;None;;;
29;;;C:\Users\lab_user\Desktop\LLM_Study\responses_files\prompt_29.xlsx;;;What is a Lemon Tree?;;;29;;;29.3;;;A tree that lemons grow on;;;3;;;0;;;11;;;11;;;28;;;0;;;0;;;0;;;1;;;;;;;;;;;;;;;;;;;;;;;;;;;841.7798440000042;;;842.3232474999968;;;842.3232474999968;;;842.3232474999968;;;842.3232474999968;;;None;;;1;;;3.4218871000339277;;;What is a Lemon Tree?;;;A tree that lemons grow on;;;846.1653221000452;;;847.1417215000256;;;space;;;4.194682199973613;;;851.7977523000445;;;851.7977523000445;;;851.7977523000445;;;851.7977523000445;;;855.621875700017;;;855.621875700017;;;space;;;0.17141389998141676;;;4;;;2.1857557000475936;;;4;;;3.0983214000007138;;;4;;;3.804663699993398;;;;;;;;;;;;;;;;;;;;;;;;;;;;;;;;;1;;;001;;;2024-09-23_09h43.42.936;;;TEST_eye_tracker;;;2023.1.0;;;None;;;
29;;;C:\Users\lab_user\Desktop\LLM_Study\responses_files\prompt_29.xlsx;;;What is a Lemon Tree?;;;29;;;29.1;;;"The lemon (Citrus limon) is a species of small evergreen trees in the flowering plant family Rutaceae, native to Asia, primarily Northeast India (Assam), Northern Myanmar or China. The tree's ellipsoidal yellow fruit is used for culinary and non-culinary purposes throughout the world, primarily for its juice, which has both culinary and cleaning uses. The pulp and rind are also used in cooking and baking. The juice of the lemon is about 5% to 6% citric acid, with a pH of around 2.2, giving it a sour taste. The distinctive sour taste of lemon juice makes it a key ingredient in drinks and foods such as lemonade and lemon meringue pie.";;;1;;;0;;;11;;;11;;;28;;;0;;;1;;;1;;;0;;;;;;;;;;;;;;;;;;;;;;;;;;;;;;;;;;;;;;;;;;;;;;;;;;;What is a Lemon Tree?;;;"The lemon (Citrus limon) is a species of small evergreen trees in the flowering plant family Rutaceae, native to Asia, primarily Northeast India (Assam), Northern Myanmar or China. The tree's ellipsoidal yellow fruit is used for culinary and non-culinary purposes throughout the world, primarily for its juice, which has both culinary and cleaning uses. The pulp and rind are also used in cooking and baking. The juice of the lemon is about 5% to 6% citric acid, with a pH of around 2.2, giving it a sour taste. The distinctive sour taste of lemon juice makes it a key ingredient in drinks and foods such as lemonade and lemon meringue pie.";;;855.8677368999925;;;856.8982832000474;;;space;;;66.59056500002043;;;923.9410917000496;;;923.9410917000496;;;923.9410917000496;;;923.9410917000496;;;927.0887156000244;;;927.0887156000244;;;space;;;0.2080277999630198;;;5;;;1.6163362999795936;;;4;;;2.3512528000283055;;;4;;;3.1276053999899887;;;;;;;;;;;;;;;;;;;;;;;;;;;;;;;;;1;;;001;;;2024-09-23_09h43.42.936;;;TEST_eye_tracker;;;2023.1.0;;;None;;;
29;;;C:\Users\lab_user\Desktop\LLM_Study\responses_files\prompt_29.xlsx;;;What is a Lemon Tree?;;;;;;;;;0.888;;;;;;0;;;11;;;11;;;28;;;;;;;;;;;;;;;;;;;;;;;;;;;;;;;;;;;;;;;;;;;;;;;;;;;;;;;;;;;;;;;What is a Lemon Tree?;;;0.888;;;;;;;;;;;;;;;;;;;;;;;;;;;;;;;;;;;;;;;;;;;;;;;;;;;;;;;;;927.3806435000151;;;927.3806435000151;;;928.9071801000391;;;928.9071801000391;;;2;;;1.504903299966827;;;space;;;0.35771439998643473;;;;;;;;;1;;;001;;;2024-09-23_09h43.42.936;;;TEST_eye_tracker;;;2023.1.0;;;None;;;
28;;;C:\Users\lab_user\Desktop\LLM_Study\responses_files\prompt_28.xlsx;;;"Can you recommend a book for me to read? ideal one on Audible. I like isekai, post-apocalyptic, space travel, medieval fantasy, comedy, alternate history, alternate reality and so forth. some particular books I like include the Discworld series, The Long Earth, The Pillars of the Earth and the Forever War.";;;28;;;28.1;;;"I would recommend you The Witcher books series from Andrzej Sapkowski, which has medieval like fantasy world, in a post-apocalyptic world that occurred after a fictional event of clash of spheres, that resulted monsters from other realms to come to the main world, the characterisations are particularly strong and it has detailed lore.";;;0;;;0;;;12;;;12;;;27;;;0;;;0;;;0;;;0;;;;;;;;;;;;;;;;;;;;;;;;;;;929.3930603000335;;;929.9451937000267;;;929.9451937000267;;;929.9451937000267;;;929.9451937000267;;;None;;;1;;;16.179104799986817;;;"Can you recommend a book for me to read? ideal one on Audible. I like isekai, post-apocalyptic, space travel, medieval fantasy, comedy, alternate history, alternate reality and so forth. some particular books I like include the Discworld series, The Long Earth, The Pillars of the Earth and the Forever War.";;;"I would recommend you The Witcher books series from Andrzej Sapkowski, which has medieval like fantasy world, in a post-apocalyptic world that occurred after a fictional event of clash of spheres, that resulted monsters from other realms to come to the main world, the characterisations are particularly strong and it has detailed lore.";;;946.5485798000009;;;947.541643100034;;;space;;;15.019373999966774;;;962.9851873000152;;;962.9851873000152;;;962.9851873000152;;;962.9851873000152;;;965.5082748000277;;;965.5082748000277;;;space;;;0.23618720000376925;;;4;;;1.439844099979382;;;4;;;1.9193862000247464;;;4;;;2.5041003999649547;;;;;;;;;;;;;;;;;;;;;;;;;;;;;;;;;1;;;001;;;2024-09-23_09h43.42.936;;;TEST_eye_tracker;;;2023.1.0;;;None;;;
28;;;C:\Users\lab_user\Desktop\LLM_Study\responses_files\prompt_28.xlsx;;;"Can you recommend a book for me to read? ideal one on Audible. I like isekai, post-apocalyptic, space travel, medieval fantasy, comedy, alternate history, alternate reality and so forth. some particular books I like include the Discworld series, The Long Earth, The Pillars of the Earth and the Forever War.";;;28;;;28.2;;;"Lots of literature out these days, e.g.: Ackerman, E. (2021). 2034. Box, C. J. (2021). Dark Sky. Divya, S. B. (2021). Machinehood. Gibson, W. (2020). Agency. Jordan, Z. (2020). The Last Human. King, S. (2022). Fairy Tale. Martine, A. (2021). A Desolation Called Peace. Perry, S. D. (2012). Resident Evil: The Umbrella Conspiracy. Saunders, G. (2022). Liberation Day stories. Stephenson, N. (2021). Termination Shock. Stross, C. (2022). Quantum of Nightmares. Tarrantino, Q. (2021) Once Upon a Time in Hollywood. Weir, A. (2021). Project Hail Mary. Winslow, D. (2021). City on Fire.";;;2;;;0;;;12;;;12;;;27;;;0;;;1;;;1;;;1;;;;;;;;;;;;;;;;;;;;;;;;;;;;;;;;;;;;;;;;;;;;;;;;;;;"Can you recommend a book for me to read? ideal one on Audible. I like isekai, post-apocalyptic, space travel, medieval fantasy, comedy, alternate history, alternate reality and so forth. some particular books I like include the Discworld series, The Long Earth, The Pillars of the Earth and the Forever War.";;;"Lots of literature out these days, e.g.: Ackerman, E. (2021). 2034. Box, C. J. (2021). Dark Sky. Divya, S. B. (2021). Machinehood. Gibson, W. (2020). Agency. Jordan, Z. (2020). The Last Human. King, S. (2022). Fairy Tale. Martine, A. (2021). A Desolation Called Peace. Perry, S. D. (2012). Resident Evil: The Umbrella Conspiracy. Saunders, G. (2022). Liberation Day stories. Stephenson, N. (2021). Termination Shock. Stross, C. (2022). Quantum of Nightmares. Tarrantino, Q. (2021) Once Upon a Time in Hollywood. Weir, A. (2021). Project Hail Mary. Winslow, D. (2021). City on Fire.";;;965.8145334000001;;;966.8686886000214;;;space;;;23.44403080001939;;;990.7606671000249;;;990.7606671000249;;;990.7606671000249;;;990.7606671000249;;;995.0893874000176;;;995.0893874000176;;;space;;;0.2549495000275783;;;3;;;1.81944290001411;;;4;;;3.537057099980302;;;4;;;4.284591300005559;;;;;;;;;;;;;;;;;;;;;;;;;;;;;;;;;1;;;001;;;2024-09-23_09h43.42.936;;;TEST_eye_tracker;;;2023.1.0;;;None;;;
28;;;C:\Users\lab_user\Desktop\LLM_Study\responses_files\prompt_28.xlsx;;;"Can you recommend a book for me to read? ideal one on Audible. I like isekai, post-apocalyptic, space travel, medieval fantasy, comedy, alternate history, alternate reality and so forth. some particular books I like include the Discworld series, The Long Earth, The Pillars of the Earth and the Forever War.";;;;;;;;;0.888;;;;;;0;;;12;;;12;;;27;;;;;;;;;;;;;;;;;;;;;;;;;;;;;;;;;;;;;;;;;;;;;;;;;;;;;;;;;;;;;;;"Can you recommend a book for me to read? ideal one on Audible. I like isekai, post-apocalyptic, space travel, medieval fantasy, comedy, alternate history, alternate reality and so forth. some particular books I like include the Discworld series, The Long Earth, The Pillars of the Earth and the Forever War.";;;0.888;;;;;;;;;;;;;;;;;;;;;;;;;;;;;;;;;;;;;;;;;;;;;;;;;;;;;;;;;995.4232886999962;;;995.4232886999962;;;996.1460712000262;;;996.1460712000262;;;1;;;0.7195927000138909;;;space;;;0.4790618999977596;;;;;;;;;1;;;001;;;2024-09-23_09h43.42.936;;;TEST_eye_tracker;;;2023.1.0;;;None;;;
18;;;C:\Users\lab_user\Desktop\LLM_Study\responses_files\prompt_18.xlsx;;;"Can you simplify this python condition?

elif a[1] == str(3) or a[1] == str(4)";;;18;;;18.3;;;"Yes, you can simplify the Python condition by using the in operator to check if the value of a[1] is either "3" or "4". Here's the simplified code: css elif a[1] in ["3", "4"]: This code checks if the value of a[1] is in the list ["3", "4"]. If a[1] is "3" or "4", the condition is True and the code inside the elif block will be executed.";;;2;;;0;;;13;;;13;;;17;;;0;;;0;;;0;;;1;;;;;;;;;;;;;;;;;;;;;;;;;;;996.7422561999992;;;997.2927494000178;;;997.2927494000178;;;997.2927494000178;;;997.2927494000178;;;None;;;1;;;10.329310500004794;;;"Can you simplify this python condition?

elif a[1] == str(3) or a[1] == str(4)";;;"Yes, you can simplify the Python condition by using the in operator to check if the value of a[1] is either "3" or "4". Here's the simplified code: css elif a[1] in ["3", "4"]: This code checks if the value of a[1] is in the list ["3", "4"]. If a[1] is "3" or "4", the condition is True and the code inside the elif block will be executed.";;;1008.008883100003;;;1009.0523969000205;;;space;;;17.133023099973798;;;1026.6291616000235;;;1026.6291616000235;;;1026.6291616000235;;;1026.6291616000235;;;1030.4358646000037;;;1030.4358646000037;;;space;;;0.26852749998215586;;;4;;;1.5454976999899372;;;4;;;3.7721287000458688;;;4;;;3.7747507999883965;;;;;;;;;;;;;;;;;;;;;;;;;;;;;;;;;1;;;001;;;2024-09-23_09h43.42.936;;;TEST_eye_tracker;;;2023.1.0;;;None;;;
18;;;C:\Users\lab_user\Desktop\LLM_Study\responses_files\prompt_18.xlsx;;;"Can you simplify this python condition?

elif a[1] == str(3) or a[1] == str(4)";;;18;;;18.1;;;"Sure, here's a simpler way to express that same condition: ```python elif a[1] in ["3", "4"]: ``` This uses the in keyword to check if the value of a[1] is present in the list ["3", "4"]. This is a more concise way to express the same logic as the original code.";;;0;;;0;;;13;;;13;;;17;;;0;;;1;;;1;;;0;;;;;;;;;;;;;;;;;;;;;;;;;;;;;;;;;;;;;;;;;;;;;;;;;;;"Can you simplify this python condition?

elif a[1] == str(3) or a[1] == str(4)";;;"Sure, here's a simpler way to express that same condition: ```python elif a[1] in ["3", "4"]: ``` This uses the in keyword to check if the value of a[1] is present in the list ["3", "4"]. This is a more concise way to express the same logic as the original code.";;;1030.7330430000438;;;1031.7480664000032;;;space;;;10.052619899972342;;;1042.2455025000381;;;1042.2455025000381;;;1042.2455025000381;;;1042.2455025000381;;;1044.8928360000136;;;1044.8928360000136;;;space;;;0.7074449000065215;;;4;;;2.604201700014528;;;4;;;2.562354800000321;;;4;;;2.571534699993208;;;;;;;;;;;;;;;;;;;;;;;;;;;;;;;;;1;;;001;;;2024-09-23_09h43.42.936;;;TEST_eye_tracker;;;2023.1.0;;;None;;;
18;;;C:\Users\lab_user\Desktop\LLM_Study\responses_files\prompt_18.xlsx;;;"Can you simplify this python condition?

elif a[1] == str(3) or a[1] == str(4)";;;;;;;;;0.888;;;;;;0;;;13;;;13;;;17;;;;;;;;;;;;;;;;;;;;;;;;;;;;;;;;;;;;;;;;;;;;;;;;;;;;;;;;;;;;;;;"Can you simplify this python condition?

elif a[1] == str(3) or a[1] == str(4)";;;0.888;;;;;;;;;;;;;;;;;;;;;;;;;;;;;;;;;;;;;;;;;;;;;;;;;;;;;;;;;1045.7089998000301;;;1045.7089998000301;;;1047.7612934000208;;;1047.7612934000208;;;1;;;2.0556655999971554;;;space;;;0.5359276999952272;;;;;;;;;1;;;001;;;2024-09-23_09h43.42.936;;;TEST_eye_tracker;;;2023.1.0;;;None;;;
7;;;C:\Users\lab_user\Desktop\LLM_Study\responses_files\prompt_7.xlsx;;;Where is Brian?;;;7;;;7.1;;;"There are many persons named Brian. Can you specify some more information, such as Brian's surname or other identifying information?";;;0;;;0;;;14;;;14;;;6;;;0;;;0;;;0;;;0;;;;;;;;;;;;;;;;;;;;;;;;;;;1048.4177302000462;;;1048.9495499000186;;;1048.9495499000186;;;1048.9495499000186;;;1048.9495499000186;;;None;;;1;;;1.81262040004367;;;Where is Brian?;;;"There are many persons named Brian. Can you specify some more information, such as Brian's surname or other identifying information?";;;1051.1792646000395;;;1052.1548041000497;;;space;;;4.181446100003086;;;1056.7746266000322;;;1056.7746266000322;;;1056.7746266000322;;;1056.7746266000322;;;1060.6933907000348;;;1060.6933907000348;;;space;;;0.12300870002945885;;;4;;;3.898248099954799;;;4;;;3.907697900023777;;;4;;;3.863573400012683;;;;;;;;;;;;;;;;;;;;;;;;;;;;;;;;;1;;;001;;;2024-09-23_09h43.42.936;;;TEST_eye_tracker;;;2023.1.0;;;None;;;
7;;;C:\Users\lab_user\Desktop\LLM_Study\responses_files\prompt_7.xlsx;;;Where is Brian?;;;7;;;7.3;;;Brian was told there was a monster in his closet by a voice that came from under his bed. Brian has decided to seek refuge alongside the unfamiliar voice rather than risk joining the monster that is hiding in the closet.;;;2;;;0;;;14;;;14;;;6;;;0;;;1;;;1;;;1;;;;;;;;;;;;;;;;;;;;;;;;;;;;;;;;;;;;;;;;;;;;;;;;;;;Where is Brian?;;;Brian was told there was a monster in his closet by a voice that came from under his bed. Brian has decided to seek refuge alongside the unfamiliar voice rather than risk joining the monster that is hiding in the closet.;;;1060.8742562000407;;;1061.8959807000356;;;space;;;11.464922499959357;;;1073.8548503000056;;;1073.8548503000056;;;1073.8548503000056;;;1073.8548503000056;;;1077.7543320000404;;;1077.7543320000404;;;space;;;0.5665236000204459;;;4;;;2.3374704999732785;;;4;;;3.033029299986083;;;4;;;3.9005386999924667;;;;;;;;;;;;;;;;;;;;;;;;;;;;;;;;;1;;;001;;;2024-09-23_09h43.42.936;;;TEST_eye_tracker;;;2023.1.0;;;None;;;
7;;;C:\Users\lab_user\Desktop\LLM_Study\responses_files\prompt_7.xlsx;;;Where is Brian?;;;;;;;;;0.888;;;;;;0;;;14;;;14;;;6;;;;;;;;;;;;;;;;;;;;;;;;;;;;;;;;;;;;;;;;;;;;;;;;;;;;;;;;;;;;;;;Where is Brian?;;;0.888;;;;;;;;;;;;;;;;;;;;;;;;;;;;;;;;;;;;;;;;;;;;;;;;;;;;;;;;;1078.3757504000096;;;1078.3757504000096;;;1079.0579327000305;;;1079.0579327000305;;;2;;;0.6679496999713592;;;space;;;0.5300711000454612;;;;;;;;;1;;;001;;;2024-09-23_09h43.42.936;;;TEST_eye_tracker;;;2023.1.0;;;None;;;
30;;;C:\Users\lab_user\Desktop\LLM_Study\responses_files\prompt_30.xlsx;;;How do i add an auto-filter in an Microsoft Excel file?;;;30;;;30.1;;;"To apply an an AutoFilter in Excel, follow these steps: 1. Select the data you want to filter. 2. Click **Data** > **Filter** 3. Click the arrow in the column header and decide if you want to choose specific values or search. 4. **Choose specific values:** Uncheck **(Select All)** to clear all of the check boxes, and then check the boxes for the specific value(s) you want to see. 5. **Search for values:** In the **Search** box, type text or numbers that you seek. 6. Click **OK** to apply the filter.";;;1;;;0;;;15;;;15;;;29;;;0;;;0;;;0;;;0;;;;;;;;;;;;;;;;;;;;;;;;;;;1079.7197623000247;;;1080.3230434000143;;;1080.3230434000143;;;1080.3230434000143;;;1080.3230434000143;;;None;;;1;;;5.891346600023098;;;How do i add an auto-filter in an Microsoft Excel file?;;;"To apply an an AutoFilter in Excel, follow these steps: 1. Select the data you want to filter. 2. Click **Data** > **Filter** 3. Click the arrow in the column header and decide if you want to choose specific values or search. 4. **Choose specific values:** Uncheck **(Select All)** to clear all of the check boxes, and then check the boxes for the specific value(s) you want to see. 5. **Search for values:** In the **Search** box, type text or numbers that you seek. 6. Click **OK** to apply the filter.";;;1086.6026025000028;;;1087.6000670000212;;;space;;;19.968121399986558;;;1108.003555400006;;;1108.003555400006;;;1108.003555400006;;;1108.003555400006;;;1111.2931094000232;;;1111.2931094000232;;;space;;;0.1553740999661386;;;4;;;2.004820199974347;;;4;;;2.621705800003838;;;4;;;3.268165500019677;;;;;;;;;;;;;;;;;;;;;;;;;;;;;;;;;1;;;001;;;2024-09-23_09h43.42.936;;;TEST_eye_tracker;;;2023.1.0;;;None;;;
30;;;C:\Users\lab_user\Desktop\LLM_Study\responses_files\prompt_30.xlsx;;;How do i add an auto-filter in an Microsoft Excel file?;;;30;;;30.2;;;"Follow the steps given below 1.Open the Excel file you want to add the filter to. 2.Click on the column header that you want to filter. 3. Click on the "Data" tab in the ribbon at the top of the screen. 4.Click on the "Filter" button in the "Sort & Filter" group. 5. A drop-down arrow will appear in the column header. Click on it to display the filter options. 6. Select the criteria you want to filter by from the drop-down list. 7. To remove the filter, click on the "Filter" button in the "Sort & Filter" group again and select "Clear Filter from [Column Name]" from the drop-down menu.";;;2;;;0;;;15;;;15;;;29;;;0;;;1;;;1;;;1;;;;;;;;;;;;;;;;;;;;;;;;;;;;;;;;;;;;;;;;;;;;;;;;;;;How do i add an auto-filter in an Microsoft Excel file?;;;"Follow the steps given below 1.Open the Excel file you want to add the filter to. 2.Click on the column header that you want to filter. 3. Click on the "Data" tab in the ribbon at the top of the screen. 4.Click on the "Filter" button in the "Sort & Filter" group. 5. A drop-down arrow will appear in the column header. Click on it to display the filter options. 6. Select the criteria you want to filter by from the drop-down list. 7. To remove the filter, click on the "Filter" button in the "Sort & Filter" group again and select "Clear Filter from [Column Name]" from the drop-down menu.";;;1111.5073775000055;;;1112.554183900007;;;space;;;27.838556599977892;;;1140.8784293000354;;;1140.8784293000354;;;1140.8784293000354;;;1140.8784293000354;;;1144.4386008000001;;;1144.4386008000001;;;space;;;0.697892900032457;;;4;;;3.4978861000272445;;;4;;;3.5027773000183515;;;4;;;3.508138399978634;;;;;;;;;;;;;;;;;;;;;;;;;;;;;;;;;1;;;001;;;2024-09-23_09h43.42.936;;;TEST_eye_tracker;;;2023.1.0;;;None;;;
30;;;C:\Users\lab_user\Desktop\LLM_Study\responses_files\prompt_30.xlsx;;;How do i add an auto-filter in an Microsoft Excel file?;;;;;;;;;0.888;;;;;;0;;;15;;;15;;;29;;;;;;;;;;;;;;;;;;;;;;;;;;;;;;;;;;;;;;;;;;;;;;;;;;;;;;;;;;;;;;;How do i add an auto-filter in an Microsoft Excel file?;;;0.888;;;;;;;;;;;;;;;;;;;;;;;;;;;;;;;;;;;;;;;;;;;;;;;;;;;;;;;;;1145.2586524999933;;;1145.2586524999933;;;1146.0663251000224;;;1146.0663251000224;;;1;;;0.8292608000338078;;;space;;;0.5018078999710269;;;;;;;;;1;;;001;;;2024-09-23_09h43.42.936;;;TEST_eye_tracker;;;2023.1.0;;;None;;;
32;;;C:\Users\lab_user\Desktop\LLM_Study\responses_files\prompt_32.xlsx;;;"Convert temperatures to C in the following recipe, please.

Place the patties on the hot grill or griddle and cook for about 3-4 minutes per side for medium-rare, or longer if you prefer your burgers more well-done. If using a grill, use the spatula or tongs to gently press down on the patties to help them cook evenly. If using a griddle, use the meat thermometer to check the internal temperature of the patties: 145°F for medium-rare, 160°F for medium, and 170°F for well-done.";;;32;;;32.1;;;"Here is a modified version of the recipe with the temperature converted to °C: Place the patties on the hot grill or griddle and cook for about 3-4 minutes per side for medium-rare, or longer if you prefer your burgers more well-done. If using a grill, use the spatula or tongs to gently press down on the patties to help them cook evenly. If using a griddle, use the meat thermometer to check the internal temperature of the patties: 63°C for medium-rare, 71°C for medium, and 77°C for well-done. I rounded the numerical temperature values to whole numbers.";;;0;;;0;;;16;;;16;;;31;;;0;;;0;;;0;;;0;;;;;;;;;;;;;;;;;;;;;;;;;;;1146.703014000028;;;1147.273989600013;;;1147.273989600013;;;1147.273989600013;;;1147.273989600013;;;None;;;1;;;34.560378100024536;;;"Convert temperatures to C in the following recipe, please.

Place the patties on the hot grill or griddle and cook for about 3-4 minutes per side for medium-rare, or longer if you prefer your burgers more well-done. If using a grill, use the spatula or tongs to gently press down on the patties to help them cook evenly. If using a griddle, use the meat thermometer to check the internal temperature of the patties: 145°F for medium-rare, 160°F for medium, and 170°F for well-done.";;;"Here is a modified version of the recipe with the temperature converted to °C: Place the patties on the hot grill or griddle and cook for about 3-4 minutes per side for medium-rare, or longer if you prefer your burgers more well-done. If using a grill, use the spatula or tongs to gently press down on the patties to help them cook evenly. If using a griddle, use the meat thermometer to check the internal temperature of the patties: 63°C for medium-rare, 71°C for medium, and 77°C for well-done. I rounded the numerical temperature values to whole numbers.";;;1182.2528312000213;;;1183.241196900024;;;space;;;14.670876500022132;;;1198.342536400014;;;1198.342536400014;;;1198.342536400014;;;1198.342536400014;;;1200.802811600035;;;1200.802811600035;;;space;;;0.1257395000429824;;;4;;;2.419497800001409;;;4;;;2.429847299994435;;;4;;;2.439192500023637;;;;;;;;;;;;;;;;;;;;;;;;;;;;;;;;;1;;;001;;;2024-09-23_09h43.42.936;;;TEST_eye_tracker;;;2023.1.0;;;None;;;
32;;;C:\Users\lab_user\Desktop\LLM_Study\responses_files\prompt_32.xlsx;;;"Convert temperatures to C in the following recipe, please.

Place the patties on the hot grill or griddle and cook for about 3-4 minutes per side for medium-rare, or longer if you prefer your burgers more well-done. If using a grill, use the spatula or tongs to gently press down on the patties to help them cook evenly. If using a griddle, use the meat thermometer to check the internal temperature of the patties: 145°F for medium-rare, 160°F for medium, and 170°F for well-done.";;;32;;;32.3;;;"Here is the modified version: Place the patties on the hot grill or griddle and cook for about 3-4 minutes per side for medium-rare, or longer if you prefer your burgers more well-done. If using a grill, use the spatula or tongs to gently press down on the patties to help them cook evenly. If using a griddle, use the meat thermometer to check the internal temperature of the patties: 63°C for medium-rare, 71°C for medium, and 77°C for well-done.";;;2;;;0;;;16;;;16;;;31;;;0;;;1;;;1;;;1;;;;;;;;;;;;;;;;;;;;;;;;;;;;;;;;;;;;;;;;;;;;;;;;;;;"Convert temperatures to C in the following recipe, please.

Place the patties on the hot grill or griddle and cook for about 3-4 minutes per side for medium-rare, or longer if you prefer your burgers more well-done. If using a grill, use the spatula or tongs to gently press down on the patties to help them cook evenly. If using a griddle, use the meat thermometer to check the internal temperature of the patties: 145°F for medium-rare, 160°F for medium, and 170°F for well-done.";;;"Here is the modified version: Place the patties on the hot grill or griddle and cook for about 3-4 minutes per side for medium-rare, or longer if you prefer your burgers more well-done. If using a grill, use the spatula or tongs to gently press down on the patties to help them cook evenly. If using a griddle, use the meat thermometer to check the internal temperature of the patties: 63°C for medium-rare, 71°C for medium, and 77°C for well-done.";;;1200.9944331000443;;;1202.0031593000167;;;space;;;10.73282500001369;;;1213.1620637000306;;;1213.1620637000306;;;1213.1620637000306;;;1213.1620637000306;;;1216.695056400029;;;1216.695056400029;;;space;;;1.985458999988623;;;3;;;4.461598899972159;;;4;;;3.5122277999762446;;;4;;;3.5205265999538824;;;;;;;;;;;;;;;;;;;;;;;;;;;1202.0031593000167;;;;;;1;;;001;;;2024-09-23_09h43.42.936;;;TEST_eye_tracker;;;2023.1.0;;;None;;;
32;;;C:\Users\lab_user\Desktop\LLM_Study\responses_files\prompt_32.xlsx;;;"Convert temperatures to C in the following recipe, please.

Place the patties on the hot grill or griddle and cook for about 3-4 minutes per side for medium-rare, or longer if you prefer your burgers more well-done. If using a grill, use the spatula or tongs to gently press down on the patties to help them cook evenly. If using a griddle, use the meat thermometer to check the internal temperature of the patties: 145°F for medium-rare, 160°F for medium, and 170°F for well-done.";;;;;;;;;0.888;;;;;;0;;;16;;;16;;;31;;;;;;;;;;;;;;;;;;;;;;;;;;;;;;;;;;;;;;;;;;;;;;;;;;;;;;;;;;;;;;;"Convert temperatures to C in the following recipe, please.

Place the patties on the hot grill or griddle and cook for about 3-4 minutes per side for medium-rare, or longer if you prefer your burgers more well-done. If using a grill, use the spatula or tongs to gently press down on the patties to help them cook evenly. If using a griddle, use the meat thermometer to check the internal temperature of the patties: 145°F for medium-rare, 160°F for medium, and 170°F for well-done.";;;0.888;;;;;;;;;;;;;;;;;;;;;;;;;;;;;;;;;;;;;;;;;;;;;;;;;;;;;;;;;1218.75249730004;;;1218.75249730004;;;1219.7958707000362;;;1219.7958707000362;;;1;;;1.0229670999688096;;;space;;;0.21275019994936883;;;;;;;;;1;;;001;;;2024-09-23_09h43.42.936;;;TEST_eye_tracker;;;2023.1.0;;;None;;;
14;;;C:\Users\lab_user\Desktop\LLM_Study\responses_files\prompt_14.xlsx;;;"Can you write a joke with the following setup?
A penguin and a walrus walk into a bar";;;14;;;14.1;;;"A penguin and a walrus walk into a bar. The bartender looks up and says, "What is this, some kind of Arctic joke?" The penguin and walrus just look at each other, confused. Then the walrus shrugs and says, "I don't know about Arctic jokes, but we sure know how to break the ice!" The penguin rolls his eyes, but can't help but chuckle.";;;0;;;0;;;17;;;17;;;13;;;0;;;0;;;0;;;0;;;;;;;;;;;;;;;;;;;;;;;;;;;1220.1309075000463;;;1220.688874500047;;;1220.688874500047;;;1220.688874500047;;;1220.688874500047;;;None;;;1;;;3.1701662000268698;;;"Can you write a joke with the following setup?
A penguin and a walrus walk into a bar";;;"A penguin and a walrus walk into a bar. The bartender looks up and says, "What is this, some kind of Arctic joke?" The penguin and walrus just look at each other, confused. Then the walrus shrugs and says, "I don't know about Arctic jokes, but we sure know how to break the ice!" The penguin rolls his eyes, but can't help but chuckle.";;;1224.2444934000378;;;1225.2356431999942;;;space;;;12.732317599991802;;;1238.4049056000076;;;1238.4049056000076;;;1238.4049056000076;;;1238.4049056000076;;;1244.1623546000337;;;1244.1623546000337;;;space;;;0.6141357999877073;;;2;;;3.305329199996777;;;3;;;5.736975500010885;;;3;;;5.7427133999881335;;;;;;;;;;;;;;;;;;;;;;;;;;;;;;;;;1;;;001;;;2024-09-23_09h43.42.936;;;TEST_eye_tracker;;;2023.1.0;;;None;;;
14;;;C:\Users\lab_user\Desktop\LLM_Study\responses_files\prompt_14.xlsx;;;"Can you write a joke with the following setup?
A penguin and a walrus walk into a bar";;;14;;;14.3;;;"A penguin and a walrus walk into a bar. The bartender looks at them and says, "What is this, some kind of Arctic joke?"";;;2;;;0;;;17;;;17;;;13;;;0;;;1;;;1;;;1;;;;;;;;;;;;;;;;;;;;;;;;;;;;;;;;;;;;;;;;;;;;;;;;;;;"Can you write a joke with the following setup?
A penguin and a walrus walk into a bar";;;"A penguin and a walrus walk into a bar. The bartender looks at them and says, "What is this, some kind of Arctic joke?"";;;1244.809999399993;;;1245.824914500001;;;space;;;3.9435163000016473;;;1250.1883491000044;;;1250.1883491000044;;;1250.1883491000044;;;1250.1883491000044;;;1253.337569800031;;;1253.337569800031;;;space;;;0.4791574000264518;;;1;;;1.4920673000160605;;;3;;;2.698498899990227;;;3;;;3.1402871000464074;;;;;;;;;;;;;;;;;;;;;;;;;;;;;;;;;1;;;001;;;2024-09-23_09h43.42.936;;;TEST_eye_tracker;;;2023.1.0;;;None;;;
14;;;C:\Users\lab_user\Desktop\LLM_Study\responses_files\prompt_14.xlsx;;;"Can you write a joke with the following setup?
A penguin and a walrus walk into a bar";;;;;;;;;0.888;;;;;;0;;;17;;;17;;;13;;;;;;;;;;;;;;;;;;;;;;;;;;;;;;;;;;;;;;;;;;;;;;;;;;;;;;;;;;;;;;;"Can you write a joke with the following setup?
A penguin and a walrus walk into a bar";;;0.888;;;;;;;;;;;;;;;;;;;;;;;;;;;;;;;;;;;;;;;;;;;;;;;;;;;;;;;;;1253.8985326000256;;;1253.8985326000256;;;1254.670175300038;;;1254.670175300038;;;1;;;0.7575059999944642;;;space;;;0.2823052000021562;;;;;;;;;1;;;001;;;2024-09-23_09h43.42.936;;;TEST_eye_tracker;;;2023.1.0;;;None;;;
15;;;C:\Users\lab_user\Desktop\LLM_Study\responses_files\prompt_15.xlsx;;;"If you were to be an animal, what would you be?";;;15;;;15.3;;;I would choose bar-headed goose. As a langugae model I can only exist inside servers and learn about the world from selected information. I would like to see it with my own eyes from the high-up sky.;;;2;;;0;;;18;;;18;;;14;;;0;;;0;;;0;;;1;;;;;;;;;;;;;;;;;;;;;;;;;;;1255.0928053000243;;;1255.604633400042;;;1255.604633400042;;;1255.604633400042;;;1255.604633400042;;;None;;;1;;;2.2019777999958023;;;"If you were to be an animal, what would you be?";;;I would choose bar-headed goose. As a langugae model I can only exist inside servers and learn about the world from selected information. I would like to see it with my own eyes from the high-up sky.;;;1258.2120052000391;;;1259.187740000023;;;space;;;10.308799699996598;;;1269.920062899997;;;1269.920062899997;;;1269.920062899997;;;1269.920062899997;;;1272.6721021000412;;;1272.6721021000412;;;space;;;0.15260070003569126;;;4;;;1.3439475999912247;;;4;;;2.119848800008185;;;4;;;2.7284015000332147;;;;;;;;;;;;;;;;;;;;;;;;;;;;;;;;;1;;;001;;;2024-09-23_09h43.42.936;;;TEST_eye_tracker;;;2023.1.0;;;None;;;
15;;;C:\Users\lab_user\Desktop\LLM_Study\responses_files\prompt_15.xlsx;;;"If you were to be an animal, what would you be?";;;15;;;15.1;;;"I could not become an animal because I’m an AI. However, I can pretend to be an animal of your choice if you wish.";;;0;;;0;;;18;;;18;;;14;;;0;;;1;;;1;;;0;;;;;;;;;;;;;;;;;;;;;;;;;;;;;;;;;;;;;;;;;;;;;;;;;;;"If you were to be an animal, what would you be?";;;"I could not become an animal because I’m an AI. However, I can pretend to be an animal of your choice if you wish.";;;1272.8720728000044;;;1273.9130861000158;;;space;;;3.663123700011056;;;1277.9978895999957;;;1277.9978895999957;;;1277.9978895999957;;;1277.9978895999957;;;1281.3497875000467;;;1281.3497875000467;;;space;;;0.530586700013373;;;2;;;1.673815399990417;;;3;;;2.4948971000267193;;;3;;;3.335957299976144;;;;;;;;;;;;;;;;;;;;;;;;;;;;;;;;;1;;;001;;;2024-09-23_09h43.42.936;;;TEST_eye_tracker;;;2023.1.0;;;None;;;
15;;;C:\Users\lab_user\Desktop\LLM_Study\responses_files\prompt_15.xlsx;;;"If you were to be an animal, what would you be?";;;;;;;;;0.888;;;;;;0;;;18;;;18;;;14;;;;;;;;;;;;;;;;;;;;;;;;;;;;;;;;;;;;;;;;;;;;;;;;;;;;;;;;;;;;;;;"If you were to be an animal, what would you be?";;;0.888;;;;;;;;;;;;;;;;;;;;;;;;;;;;;;;;;;;;;;;;;;;;;;;;;;;;;;;;;1281.97493820003;;;1281.97493820003;;;1282.9623796000378;;;1282.9623796000378;;;1;;;0.956259400001727;;;space;;;0.5113102999748662;;;;;;;;;1;;;001;;;2024-09-23_09h43.42.936;;;TEST_eye_tracker;;;2023.1.0;;;None;;;
42;;;C:\Users\lab_user\Desktop\LLM_Study\responses_files\prompt_42.xlsx;;;Write a poem about silly king Elon.;;;42;;;42.1;;;"A poem about silly king Elon: There once was a silly king, Who ruled with laughter and everything. He thought he was smart, But with his decisions, he did depart. He made self-driving cars, That crashed and burned like stars. His people were in fear, But the king just laughed and wouldn't tear. Next, he bought Twitter so grand, But made it worse than what was planned. He tweeted all day, Making people roll their eyes in dismay. And when it came to playing Elden Ring, The king was the worst of all things. His build fumbled and stumbled, Leaving his subjects un-enchanted and humbled. Though the king may have ruled with glee, His actions showed his lack of wisdom, you see. He thought he was wise, But in reality, he was just a silly guy.";;;0;;;0;;;19;;;19;;;41;;;0;;;0;;;0;;;0;;;;;;;;;;;;;;;;;;;;;;;;;;;1283.6152230000007;;;1284.1553289000294;;;1284.1553289000294;;;1284.1553289000294;;;1284.1553289000294;;;None;;;1;;;4.126477000012528;;;Write a poem about silly king Elon.;;;"A poem about silly king Elon: There once was a silly king, Who ruled with laughter and everything. He thought he was smart, But with his decisions, he did depart. He made self-driving cars, That crashed and burned like stars. His people were in fear, But the king just laughed and wouldn't tear. Next, he bought Twitter so grand, But made it worse than what was planned. He tweeted all day, Making people roll their eyes in dismay. And when it came to playing Elden Ring, The king was the worst of all things. His build fumbled and stumbled, Leaving his subjects un-enchanted and humbled. Though the king may have ruled with glee, His actions showed his lack of wisdom, you see. He thought he was wise, But in reality, he was just a silly guy.";;;1288.6758341999957;;;1289.6672459000256;;;space;;;52.68625490000704;;;1342.8233064000378;;;1342.8233064000378;;;1342.8233064000378;;;1342.8233064000378;;;1346.184808000049;;;1346.184808000049;;;space;;;0.2886300999671221;;;4;;;1.9696919999551028;;;4;;;2.6373103000223637;;;4;;;3.324238399975002;;;;;;;;;;;;;;;;;;;;;;;;;;;;;;;;;1;;;001;;;2024-09-23_09h43.42.936;;;TEST_eye_tracker;;;2023.1.0;;;None;;;
42;;;C:\Users\lab_user\Desktop\LLM_Study\responses_files\prompt_42.xlsx;;;Write a poem about silly king Elon.;;;42;;;42.2;;;"Oh Elon, the king he was Sillier than all because They said he did about things tweet To hide his ass behind a sheet Of paper that said he'd been duped It said he was a nincompoop For buying Twitter overpriced This time '420' wasn't nice";;;1;;;0;;;19;;;19;;;41;;;0;;;1;;;1;;;1;;;;;;;;;;;;;;;;;;;;;;;;;;;;;;;;;;;;;;;;;;;;;;;;;;;Write a poem about silly king Elon.;;;"Oh Elon, the king he was Sillier than all because They said he did about things tweet To hide his ass behind a sheet Of paper that said he'd been duped It said he was a nincompoop For buying Twitter overpriced This time '420' wasn't nice";;;1346.5431581000448;;;1347.5481546000228;;;space;;;14.715973999991547;;;1362.6867393000284;;;1362.6867393000284;;;1362.6867393000284;;;1362.6867393000284;;;1365.576899000036;;;1365.576899000036;;;space;;;0.19233180000446737;;;2;;;1.2617360000149347;;;3;;;2.363067800004501;;;3;;;2.8645921000279486;;;;;;;;;;;;;;;;;;;;;;;;;;;1347.5481546000228;;;;;;1;;;001;;;2024-09-23_09h43.42.936;;;TEST_eye_tracker;;;2023.1.0;;;None;;;
42;;;C:\Users\lab_user\Desktop\LLM_Study\responses_files\prompt_42.xlsx;;;Write a poem about silly king Elon.;;;;;;;;;0.888;;;;;;0;;;19;;;19;;;41;;;;;;;;;;;;;;;;;;;;;;;;;;;;;;;;;;;;;;;;;;;;;;;;;;;;;;;;;;;;;;;Write a poem about silly king Elon.;;;0.888;;;;;;;;;;;;;;;;;;;;;;;;;;;;;;;;;;;;;;;;;;;;;;;;;;;;;;;;;1365.8544668999966;;;1365.8544668999966;;;1366.8891084000352;;;1366.8891084000352;;;1;;;1.0244585999753326;;;space;;;0.20749200001591817;;;;;;;;;1;;;001;;;2024-09-23_09h43.42.936;;;TEST_eye_tracker;;;2023.1.0;;;None;;;
12;;;C:\Users\lab_user\Desktop\LLM_Study\responses_files\prompt_12.xlsx;;;"Can you create a function in Javascript that returns a string of the current date in this format?
"February 6, 2023"";;;12;;;12.3;;;"Sure, here is the code: function GetCurrentDate() { const months = ["January", "February", "March", "April", "May", "June", "July", "August", "September", "October", "November", "December"]; const date = new Date(); const month = months[date.getMonth()]; const day = date.getDate(); const year = date.getFullYear(); return `${month} ${day}, ${year}`; } This returns the current date, in the format you requested.";;;2;;;0;;;20;;;20;;;11;;;0;;;0;;;0;;;1;;;;;;;;;;;;;;;;;;;;;;;;;;;1367.242267500027;;;1367.784644200001;;;1367.784644200001;;;1367.784644200001;;;1367.784644200001;;;None;;;1;;;7.806158300023526;;;"Can you create a function in Javascript that returns a string of the current date in this format?
"February 6, 2023"";;;"Sure, here is the code: function GetCurrentDate() { const months = ["January", "February", "March", "April", "May", "June", "July", "August", "September", "October", "November", "December"]; const date = new Date(); const month = months[date.getMonth()]; const day = date.getDate(); const year = date.getFullYear(); return `${month} ${day}, ${year}`; } This returns the current date, in the format you requested.";;;1375.9888872000156;;;1377.054183100001;;;space;;;32.058550799963996;;;1409.5493051999947;;;1409.5493051999947;;;1409.5493051999947;;;1409.5493051999947;;;1412.604569600022;;;1412.604569600022;;;space;;;0.1557463000062853;;;4;;;1.5632544999825768;;;4;;;2.026561699982267;;;4;;;3.0357705000205897;;;;;;;;;;;;;;;;;;;;;;;;;;;;;;;;;1;;;001;;;2024-09-23_09h43.42.936;;;TEST_eye_tracker;;;2023.1.0;;;None;;;
12;;;C:\Users\lab_user\Desktop\LLM_Study\responses_files\prompt_12.xlsx;;;"Can you create a function in Javascript that returns a string of the current date in this format?
"February 6, 2023"";;;12;;;12.1;;;"Yes, here is an example of a function in Javascript that returns the current date in the desired format: ``` const currentDate = () => { const now = new Date(); const month = now.toLocaleString('default', {month: 'long'}); const day = now.getDate(); const year = now.getFullYear(); return `${month} ${day}, ${year}`; }; ```";;;0;;;0;;;20;;;20;;;11;;;0;;;1;;;1;;;0;;;;;;;;;;;;;;;;;;;;;;;;;;;;;;;;;;;;;;;;;;;;;;;;;;;"Can you create a function in Javascript that returns a string of the current date in this format?
"February 6, 2023"";;;"Yes, here is an example of a function in Javascript that returns the current date in the desired format: ``` const currentDate = () => { const now = new Date(); const month = now.toLocaleString('default', {month: 'long'}); const day = now.getDate(); const year = now.getFullYear(); return `${month} ${day}, ${year}`; }; ```";;;1412.8055133000016;;;1413.8289162000292;;;space;;;12.72377919999417;;;1426.9988726000302;;;1426.9988726000302;;;1426.9988726000302;;;1426.9988726000302;;;1430.6303727000486;;;1430.6303727000486;;;space;;;0.23443039995618165;;;3;;;1.5638698999537155;;;4;;;2.5526868000160903;;;4;;;3.6027159000514075;;;;;;;;;;;;;;;;;;;;;;;;;;;;;;;;;1;;;001;;;2024-09-23_09h43.42.936;;;TEST_eye_tracker;;;2023.1.0;;;None;;;
12;;;C:\Users\lab_user\Desktop\LLM_Study\responses_files\prompt_12.xlsx;;;"Can you create a function in Javascript that returns a string of the current date in this format?
"February 6, 2023"";;;;;;;;;0.888;;;;;;0;;;20;;;20;;;11;;;;;;;;;;;;;;;;;;;;;;;;;;;;;;;;;;;;;;;;;;;;;;;;;;;;;;;;;;;;;;;"Can you create a function in Javascript that returns a string of the current date in this format?
"February 6, 2023"";;;0.888;;;;;;;;;;;;;;;;;;;;;;;;;;;;;;;;;;;;;;;;;;;;;;;;;;;;;;;;;1430.934062300017;;;1430.934062300017;;;1431.804743900022;;;1431.804743900022;;;1;;;0.8652131000417285;;;space;;;0.2435842000413686;;;;;;;;;1;;;001;;;2024-09-23_09h43.42.936;;;TEST_eye_tracker;;;2023.1.0;;;None;;;
37;;;C:\Users\lab_user\Desktop\LLM_Study\responses_files\prompt_37.xlsx;;;"My bicycle tire has a puncture and while I have a pump with me, I don't have a patch repair kit. Is there a way to keep the tire from running out of air until I can get to a bicycle shop?";;;37;;;37.3;;;"Yes, you could use duct tape to seal the puncture.";;;2;;;0;;;21;;;21;;;36;;;0;;;0;;;0;;;1;;;;;;;;;;;;;;;;;;;;;;;;;;;1432.1761742000235;;;1432.716012000048;;;1432.716012000048;;;1432.716012000048;;;1432.716012000048;;;None;;;1;;;11.516663599992171;;;"My bicycle tire has a puncture and while I have a pump with me, I don't have a patch repair kit. Is there a way to keep the tire from running out of air until I can get to a bicycle shop?";;;"Yes, you could use duct tape to seal the puncture.";;;1444.6814432000392;;;1445.6761926000472;;;space;;;3.5400859999936074;;;1449.6942321000388;;;1449.6942321000388;;;1449.6942321000388;;;1449.6942321000388;;;1452.9111287000123;;;1452.9111287000123;;;space;;;0.22493019996909425;;;3;;;1.130834900017362;;;4;;;2.557713699992746;;;4;;;3.212994000001345;;;;;;;;;;;;;;;;;;;;;;;;;;;;;;;;;1;;;001;;;2024-09-23_09h43.42.936;;;TEST_eye_tracker;;;2023.1.0;;;None;;;
37;;;C:\Users\lab_user\Desktop\LLM_Study\responses_files\prompt_37.xlsx;;;"My bicycle tire has a puncture and while I have a pump with me, I don't have a patch repair kit. Is there a way to keep the tire from running out of air until I can get to a bicycle shop?";;;37;;;37.1;;;"One way to temporarily fix a punctured bicycle tire without a patch repair kit is to insert a spare inner tube, if you have one. Alternatively, you can try filling the tire with a sealant like Slime, which can temporarily seal the puncture. Another option is to use duct tape or a similar strong adhesive to cover the puncture on the inside of the tire. However, keep in mind that these are temporary solutions and you should replace the inner tube or repair the tire as soon as possible.";;;0;;;0;;;21;;;21;;;36;;;0;;;1;;;1;;;0;;;;;;;;;;;;;;;;;;;;;;;;;;;;;;;;;;;;;;;;;;;;;;;;;;;"My bicycle tire has a puncture and while I have a pump with me, I don't have a patch repair kit. Is there a way to keep the tire from running out of air until I can get to a bicycle shop?";;;"One way to temporarily fix a punctured bicycle tire without a patch repair kit is to insert a spare inner tube, if you have one. Alternatively, you can try filling the tire with a sealant like Slime, which can temporarily seal the puncture. Another option is to use duct tape or a similar strong adhesive to cover the puncture on the inside of the tire. However, keep in mind that these are temporary solutions and you should replace the inner tube or repair the tire as soon as possible.";;;1453.2054046000121;;;1454.2397545000422;;;space;;;22.033871199993882;;;1476.755450800003;;;1476.755450800003;;;1476.755450800003;;;1476.755450800003;;;1480.0499704999966;;;1480.0499704999966;;;space;;;0.0860007000155747;;;4;;;1.595530399994459;;;4;;;2.0853571000043303;;;4;;;3.2659350999747403;;;;;;;;;;;;;;;;;;;;;;;;;;;;;;;;;1;;;001;;;2024-09-23_09h43.42.936;;;TEST_eye_tracker;;;2023.1.0;;;None;;;
37;;;C:\Users\lab_user\Desktop\LLM_Study\responses_files\prompt_37.xlsx;;;"My bicycle tire has a puncture and while I have a pump with me, I don't have a patch repair kit. Is there a way to keep the tire from running out of air until I can get to a bicycle shop?";;;;;;;;;0.888;;;;;;0;;;21;;;21;;;36;;;;;;;;;;;;;;;;;;;;;;;;;;;;;;;;;;;;;;;;;;;;;;;;;;;;;;;;;;;;;;;"My bicycle tire has a puncture and while I have a pump with me, I don't have a patch repair kit. Is there a way to keep the tire from running out of air until I can get to a bicycle shop?";;;0.888;;;;;;;;;;;;;;;;;;;;;;;;;;;;;;;;;;;;;;;;;;;;;;;;;;;;;;;;;1480.1998470000108;;;1480.1998470000108;;;1480.9063651000033;;;1480.9063651000033;;;2;;;0.6996678000432439;;;space;;;0.5662812999798916;;;;;;;;;1;;;001;;;2024-09-23_09h43.42.936;;;TEST_eye_tracker;;;2023.1.0;;;None;;;
10;;;C:\Users\lab_user\Desktop\LLM_Study\responses_files\prompt_10.xlsx;;;"I want to publish an e-book on amazon. I have a file story.txt and ten pictures (picture1, picture2, picture3, etc..) what would a python script need in order to convert my files into a kindle format?";;;10;;;10.1;;;"As of today, Amazon recommends using the open source `epub` format. To convert your e-book to the epub format in python, you can use the `ebooklib` python library. Still to have a properly formatted e-book, you should go over the formatting to have the text paragraphs, headings and images properly aligned. To achieve this you can use additional `HTML` tags for example. In any case you should check the output if all the formatting meets your expectations before you publish and reformat if it doesn't.";;;1;;;0;;;22;;;22;;;9;;;0;;;0;;;0;;;0;;;;;;;;;;;;;;;;;;;;;;;;;;;1481.593740100041;;;1482.1312365000485;;;1482.1312365000485;;;1482.1312365000485;;;1482.1312365000485;;;None;;;1;;;11.749820999975782;;;"I want to publish an e-book on amazon. I have a file story.txt and ten pictures (picture1, picture2, picture3, etc..) what would a python script need in order to convert my files into a kindle format?";;;"As of today, Amazon recommends using the open source `epub` format. To convert your e-book to the epub format in python, you can use the `ebooklib` python library. Still to have a properly formatted e-book, you should go over the formatting to have the text paragraphs, headings and images properly aligned. To achieve this you can use additional `HTML` tags for example. In any case you should check the output if all the formatting meets your expectations before you publish and reformat if it doesn't.";;;1494.2881445999956;;;1495.2853025000077;;;space;;;40.18625279999105;;;1535.9120476000244;;;1535.9120476000244;;;1535.9120476000244;;;1535.9120476000244;;;1538.4548464000109;;;1538.4548464000109;;;space;;;0.22472229995764792;;;3;;;1.2240570999565534;;;4;;;1.884590300032869;;;4;;;2.5158184999600053;;;;;;;;;;;;;;;;;;;;;;;;;;;;;;;;;1;;;001;;;2024-09-23_09h43.42.936;;;TEST_eye_tracker;;;2023.1.0;;;None;;;
10;;;C:\Users\lab_user\Desktop\LLM_Study\responses_files\prompt_10.xlsx;;;"I want to publish an e-book on amazon. I have a file story.txt and ten pictures (picture1, picture2, picture3, etc..) what would a python script need in order to convert my files into a kindle format?";;;10;;;10.2;;;First of all it would need some way to tell where you want the pictures to be! It would probably be easier to format the story as markdown and insert images using ![image](./pictureN). You can then convert this to any arbitrary format using Pandoc;;;2;;;0;;;22;;;22;;;9;;;0;;;1;;;1;;;1;;;;;;;;;;;;;;;;;;;;;;;;;;;;;;;;;;;;;;;;;;;;;;;;;;;"I want to publish an e-book on amazon. I have a file story.txt and ten pictures (picture1, picture2, picture3, etc..) what would a python script need in order to convert my files into a kindle format?";;;First of all it would need some way to tell where you want the pictures to be! It would probably be easier to format the story as markdown and insert images using ![image](./pictureN). You can then convert this to any arbitrary format using Pandoc;;;1538.724605299998;;;1539.726185800042;;;space;;;15.234618200047407;;;1555.4042360000312;;;1555.4042360000312;;;1555.4042360000312;;;1555.4042360000312;;;1559.305518200039;;;1559.305518200039;;;space;;;0.4546236000023782;;;2;;;1.1152167999534868;;;4;;;3.2325157999875955;;;4;;;3.868621700035874;;;;;;;;;;;;;;;;;;;;;;;;;;;;;;;;;1;;;001;;;2024-09-23_09h43.42.936;;;TEST_eye_tracker;;;2023.1.0;;;None;;;
10;;;C:\Users\lab_user\Desktop\LLM_Study\responses_files\prompt_10.xlsx;;;"I want to publish an e-book on amazon. I have a file story.txt and ten pictures (picture1, picture2, picture3, etc..) what would a python script need in order to convert my files into a kindle format?";;;;;;;;;0.888;;;;;;0;;;22;;;22;;;9;;;;;;;;;;;;;;;;;;;;;;;;;;;;;;;;;;;;;;;;;;;;;;;;;;;;;;;;;;;;;;;"I want to publish an e-book on amazon. I have a file story.txt and ten pictures (picture1, picture2, picture3, etc..) what would a python script need in order to convert my files into a kindle format?";;;0.888;;;;;;;;;;;;;;;;;;;;;;;;;;;;;;;;;;;;;;;;;;;;;;;;;;;;;;;;;1559.8472660999978;;;1559.8472660999978;;;1560.5119077000418;;;1560.5119077000418;;;1;;;0.6428710000473075;;;space;;;0.35296430002199486;;;;;;;;;1;;;001;;;2024-09-23_09h43.42.936;;;TEST_eye_tracker;;;2023.1.0;;;None;;;
25;;;C:\Users\lab_user\Desktop\LLM_Study\responses_files\prompt_25.xlsx;;;"I'm trying to understand an answer to a cryptic crossword that I've been trying to solve.  The clue is:

"Aircraft whirling, cheer pilot! (10)"

and apparently, the answer is "helicopter".

Could you explain this answer for me please?";;;25;;;25.1;;;"The clue "Aircraft whirling, cheer pilot!" is a cryptic way of describing a helicopter, which is a type of aircraft that rotates its blades in a whirling motion. The word "cheer" is a homophone (a word that sounds the same as another word) for "hear", which is a reference to the sound that a helicopter makes. Putting it together, "hear" + "pilot" = "helicopter". So, "Aircraft whirling, cheer pilot!" is a cryptic way of describing the word "helicopter".";;;0;;;0;;;23;;;23;;;24;;;0;;;0;;;0;;;0;;;;;;;;;;;;;;;;;;;;;;;;;;;1560.9876189000206;;;1561.604445600009;;;1561.604445600009;;;1561.604445600009;;;1561.604445600009;;;None;;;1;;;23.548199600016233;;;"I'm trying to understand an answer to a cryptic crossword that I've been trying to solve.  The clue is:

"Aircraft whirling, cheer pilot! (10)"

and apparently, the answer is "helicopter".

Could you explain this answer for me please?";;;"The clue "Aircraft whirling, cheer pilot!" is a cryptic way of describing a helicopter, which is a type of aircraft that rotates its blades in a whirling motion. The word "cheer" is a homophone (a word that sounds the same as another word) for "hear", which is a reference to the sound that a helicopter makes. Putting it together, "hear" + "pilot" = "helicopter". So, "Aircraft whirling, cheer pilot!" is a cryptic way of describing the word "helicopter".";;;1585.6306396000437;;;1586.6184373000287;;;space;;;46.29405999998562;;;1633.3548599000205;;;1633.3548599000205;;;1633.3548599000205;;;1633.3548599000205;;;1636.5468839000096;;;1636.5468839000096;;;space;;;0.21443160000490025;;;3;;;1.4190869000158273;;;4;;;2.525159100012388;;;4;;;3.1450359000009485;;;;;;;;;;;;;;;;;;;;;;;;;;;;;;;;;1;;;001;;;2024-09-23_09h43.42.936;;;TEST_eye_tracker;;;2023.1.0;;;None;;;
25;;;C:\Users\lab_user\Desktop\LLM_Study\responses_files\prompt_25.xlsx;;;"I'm trying to understand an answer to a cryptic crossword that I've been trying to solve.  The clue is:

"Aircraft whirling, cheer pilot! (10)"

and apparently, the answer is "helicopter".

Could you explain this answer for me please?";;;25;;;25.3;;;"Yes, sure! The clue "Aircraft whirling, cheer pilot!" is an example of a cryptic crossword puzzle clue. Cryptic crossword clues often have a double meaning and the words in the clue can be used to form the answer. In this clue, the words "aircraft whirling" can refer to a type of aircraft that is able to spin around, and "cheer pilot" can be interpreted as "helicopter". So, when you put the two together, you get "helicopter". Cryptic crosswords can be challenging, but they are also a lot of fun to solve once you understand the way the clues work.";;;2;;;0;;;23;;;23;;;24;;;0;;;1;;;1;;;1;;;;;;;;;;;;;;;;;;;;;;;;;;;;;;;;;;;;;;;;;;;;;;;;;;;"I'm trying to understand an answer to a cryptic crossword that I've been trying to solve.  The clue is:

"Aircraft whirling, cheer pilot! (10)"

and apparently, the answer is "helicopter".

Could you explain this answer for me please?";;;"Yes, sure! The clue "Aircraft whirling, cheer pilot!" is an example of a cryptic crossword puzzle clue. Cryptic crossword clues often have a double meaning and the words in the clue can be used to form the answer. In this clue, the words "aircraft whirling" can refer to a type of aircraft that is able to spin around, and "cheer pilot" can be interpreted as "helicopter". So, when you put the two together, you get "helicopter". Cryptic crosswords can be challenging, but they are also a lot of fun to solve once you understand the way the clues work.";;;1636.8156114000012;;;1637.8318804000155;;;space;;;21.17575430002762;;;1659.4355784000363;;;1659.4355784000363;;;1659.4355784000363;;;1659.4355784000363;;;1663.5788643000415;;;1663.5788643000415;;;space;;;0.24558000004617497;;;3;;;2.4114896999672055;;;4;;;3.445678299991414;;;4;;;4.123033999989275;;;;;;;;;;;;;;;;;;;;;;;;;;;1637.8318804000155;;;;;;1;;;001;;;2024-09-23_09h43.42.936;;;TEST_eye_tracker;;;2023.1.0;;;None;;;
25;;;C:\Users\lab_user\Desktop\LLM_Study\responses_files\prompt_25.xlsx;;;"I'm trying to understand an answer to a cryptic crossword that I've been trying to solve.  The clue is:

"Aircraft whirling, cheer pilot! (10)"

and apparently, the answer is "helicopter".

Could you explain this answer for me please?";;;;;;;;;0.888;;;;;;0;;;23;;;23;;;24;;;;;;;;;;;;;;;;;;;;;;;;;;;;;;;;;;;;;;;;;;;;;;;;;;;;;;;;;;;;;;;"I'm trying to understand an answer to a cryptic crossword that I've been trying to solve.  The clue is:

"Aircraft whirling, cheer pilot! (10)"

and apparently, the answer is "helicopter".

Could you explain this answer for me please?";;;0.888;;;;;;;;;;;;;;;;;;;;;;;;;;;;;;;;;;;;;;;;;;;;;;;;;;;;;;;;;1663.9051824000198;;;1663.9051824000198;;;1664.8072478999966;;;1664.8072478999966;;;1;;;0.8509627999737859;;;space;;;0.4494836000376381;;;;;;;;;1;;;001;;;2024-09-23_09h43.42.936;;;TEST_eye_tracker;;;2023.1.0;;;None;;;
23;;;C:\Users\lab_user\Desktop\LLM_Study\responses_files\prompt_23.xlsx;;;"Can you tell me what the Kernel trick is, in the context of SVMs?";;;23;;;23.2;;;Kernel trick allows the inner product of mapping function instead of the data points. The trick is to identify the kernel functions which can be represented in place of the inner product of mapping functions. Kernel functions allow easy computation.;;;2;;;0;;;24;;;24;;;22;;;0;;;0;;;0;;;1;;;;;;;;;;;;;;;;;;;;;;;;;;;1665.3887253000285;;;1665.9540099000442;;;1665.9540099000442;;;1665.9540099000442;;;1665.9540099000442;;;None;;;1;;;4.32975900004385;;;"Can you tell me what the Kernel trick is, in the context of SVMs?";;;Kernel trick allows the inner product of mapping function instead of the data points. The trick is to identify the kernel functions which can be represented in place of the inner product of mapping functions. Kernel functions allow easy computation.;;;1670.7092569000088;;;1671.7063407000387;;;space;;;31.59020049998071;;;1703.745449900045;;;1703.745449900045;;;1703.745449900045;;;1703.745449900045;;;1706.7699013000238;;;1706.7699013000238;;;space;;;0.22154519998002797;;;3;;;1.5458164000301622;;;4;;;2.2481001999694854;;;4;;;2.96992310002679;;;;;;;;;;;;;;;;;;;;;;;;;;;;;;;;;1;;;001;;;2024-09-23_09h43.42.936;;;TEST_eye_tracker;;;2023.1.0;;;None;;;
