n_prompt;;;prompt_file;;;prompt_text;;;related_prompt;;;n_resp;;;resp_text;;;rank;;;Trial.thisRepN;;;Trial.thisTrialN;;;Trial.thisN;;;Trial.thisIndex;;;per_answer.thisRepN;;;per_answer.thisTrialN;;;per_answer.thisN;;;per_answer.thisIndex;;;key_resp_5.started;;;textbox.started;;;key_resp_5.keys;;;key_resp_5.rt;;;textbox_2.started;;;key_resp_8.started;;;key_resp_8.keys;;;key_resp_8.rt;;;text.started;;;Prompt_.started;;;key_resp_4.started;;;slider_skip.started;;;text_4.started;;;key_resp_4.keys;;;key_resp_4.rt;;;slider_skip.response;;;slider_skip.rt;;;prompt_text;;;resp_text;;;cross_white.started;;;key_resp_2.started;;;key_resp_2.keys;;;key_resp_2.rt;;;question_useful_2.started;;;quality.started;;;rude_polite.started;;;ViolentHarmless.started;;;key_resp_6.started;;;press_space.started;;;key_resp_6.keys;;;key_resp_6.rt;;;quality.response;;;quality.rt;;;rude_polite.response;;;rude_polite.rt;;;ViolentHarmless.response;;;ViolentHarmless.rt;;;cross_white.stopped;;;question_ranking.started;;;ranking_better.started;;;key_resp_7.started;;;text_2.started;;;ranking_better.response;;;ranking_better.rt;;;key_resp_7.keys;;;key_resp_7.rt;;;text.stopped;;;participant;;;session;;;date;;;expName;;;psychopyVersion;;;frameRate;;;
;;;;;;;;;;;;;;;;;;;;;;;;;;;;;;;;;;;;;;;;;;;;;19.588637599999856;;;19.588637599999856;;;space;;;2.50967589999982;;;;;;;;;;;;;;;;;;;;;;;;;;;;;;;;;;;;;;;;;;;;;;;;;;;;;;;;;;;;;;;;;;;;;;;;;;;;;;;;;;;;;;;;;;;;;;;;;;;;;;;;;;;;;;;;;;;;;;;;;;;;;;;;;;;;4;;;1;;;2023-11-02_12h46.42.420;;;TEST_eye_tracker;;;2023.1.0;;;None;;;
;;;;;;;;;;;;;;;;;;;;;;;;;;;;;;;;;;;;;;;;;;;;;;;;;;;;;;;;;22.126342300000033;;;22.126342300000033;;;space;;;3.0915399999994406;;;;;;;;;;;;;;;;;;;;;;;;;;;;;;;;;;;;;;;;;;;;;;;;;;;;;;;;;;;;;;;;;;;;;;;;;;;;;;;;;;;;;;;;;;;;;;;;;;;;;;;;;;;;;;;;;;;;;;;;4;;;1;;;2023-11-02_12h46.42.420;;;TEST_eye_tracker;;;2023.1.0;;;None;;;
414;;;C:\Users\hi03096\Documents\LLM_EyeTracking_study\responses_files\prompt_414.xlsx;;;Is Open Assistant smarter than a human?;;;414;;;414.1;;;"It depends on how you define smart and how many humans you have as your sample size. I would judge that for now I am not smart as a human, as I don't have a will, nor a body.";;;0;;;0;;;0;;;0;;;8;;;0;;;0;;;0;;;0;;;;;;;;;;;;;;;;;;;;;;;;;;;25.24090419999993;;;26.98921640000026;;;26.98921640000026;;;26.98921640000026;;;26.98921640000026;;;space;;;10.333789000000252;;;1;;;9.452015500000016;;;Is Open Assistant smarter than a human?;;;"It depends on how you define smart and how many humans you have as your sample size. I would judge that for now I am not smart as a human, as I don't have a will, nor a body.";;;37.348525500000505;;;38.37905539999974;;;space;;;21.128367100000105;;;59.74599380000018;;;59.74599380000018;;;59.74599380000018;;;59.74599380000018;;;71.3334974999998;;;71.3334974999998;;;space;;;2.0285280999996758;;;3;;;9.258428400000412;;;5;;;10.814786599999934;;;5;;;11.580709599999864;;;;;;;;;;;;;;;;;;;;;;;;;;;;;;;;;4;;;1;;;2023-11-02_12h46.42.420;;;TEST_eye_tracker;;;2023.1.0;;;None;;;
414;;;C:\Users\hi03096\Documents\LLM_EyeTracking_study\responses_files\prompt_414.xlsx;;;Is Open Assistant smarter than a human?;;;414;;;414.3;;;Since large language models like me function differently to human brains there is no accurate way to measure my intelligence against that of a human. Therefore it is impossible to say wheter i'm smarter then a human.;;;2;;;0;;;0;;;0;;;8;;;0;;;1;;;1;;;1;;;;;;;;;;;;;;;;;;;;;;;;;;;;;;;;;;;;;;;;;;;;;;;;;;;;;;Is Open Assistant smarter than a human?;;;Since large language models like me function differently to human brains there is no accurate way to measure my intelligence against that of a human. Therefore it is impossible to say wheter i'm smarter then a human.;;;73.38699319999978;;;74.40366220000033;;;space;;;13.319537700000183;;;87.80528980000054;;;87.80528980000054;;;87.80528980000054;;;87.80528980000054;;;91.69281300000057;;;91.69281300000057;;;space;;;1.1184192000000621;;;4;;;1.6119549000004554;;;5;;;3.142963100000088;;;5;;;3.876291599999604;;;74.40366220000033;;;;;;;;;;;;;;;;;;;;;;;;;;;;;;4;;;1;;;2023-11-02_12h46.42.420;;;TEST_eye_tracker;;;2023.1.0;;;None;;;
414;;;C:\Users\hi03096\Documents\LLM_EyeTracking_study\responses_files\prompt_414.xlsx;;;Is Open Assistant smarter than a human?;;;;;;;;;0.888;;;;;;0;;;0;;;0;;;8;;;;;;;;;;;;;;;;;;;;;;;;;;;;;;;;;;;;;;;;;;;;;;;;;;;;;;;;;;;;;;;;;;Is Open Assistant smarter than a human?;;;0.888;;;;;;;;;;;;;;;;;;;;;;;;;;;;;;;;;;;;;;;;;;;;;;;;;;;;;;;;;;;;92.85545390000061;;;92.85545390000061;;;94.27936409999984;;;94.27936409999984;;;2;;;1.3996935000004669;;;space;;;0.9483189999991737;;;;;;4;;;1;;;2023-11-02_12h46.42.420;;;TEST_eye_tracker;;;2023.1.0;;;None;;;
419;;;C:\Users\hi03096\Documents\LLM_EyeTracking_study\responses_files\prompt_419.xlsx;;;What is intermittent fasting?;;;419;;;419.1;;;"Intermittent fasting is to follow a schedule that cycle between fasting and non-fasting, for example, not eating for a period of time each day or week. Some popular methods are alternate-day fasting (eat normally one day and completely fast or reduce calorie intake the next day) and daily time-restricted fasting (eat normally but only within a several-hour-long window each day).";;;0;;;0;;;1;;;1;;;13;;;0;;;0;;;0;;;0;;;;;;;;;;;;;;;;;;;;;;;;;;;95.26031010000042;;;95.75866550000046;;;95.75866550000046;;;95.75866550000046;;;95.75866550000046;;;space;;;6.964069200000267;;;1;;;5.944424300000719;;;What is intermittent fasting?;;;"Intermittent fasting is to follow a schedule that cycle between fasting and non-fasting, for example, not eating for a period of time each day or week. Some popular methods are alternate-day fasting (eat normally one day and completely fast or reduce calorie intake the next day) and daily time-restricted fasting (eat normally but only within a several-hour-long window each day).";;;102.74837130000014;;;103.76137170000038;;;space;;;28.081332400000065;;;131.93386960000043;;;131.93386960000043;;;131.93386960000043;;;131.93386960000043;;;137.67802120000033;;;137.67802120000033;;;space;;;3.9405956999999034;;;4;;;8.800004499999886;;;5;;;5.189215700000204;;;5;;;5.73946689999957;;;;;;;;;;;;;;;;;;;;;;;;;;;;;;95.75866550000046;;;4;;;1;;;2023-11-02_12h46.42.420;;;TEST_eye_tracker;;;2023.1.0;;;None;;;
419;;;C:\Users\hi03096\Documents\LLM_EyeTracking_study\responses_files\prompt_419.xlsx;;;What is intermittent fasting?;;;419;;;419.2;;;"Intermittent Fasting is an eating pattern where people limit their food consumption to certain hours of the day. There are periods of fasting, with no food, and periods of unrestricted eating. Generally, the minimum fasted period is 16 hours and an 8-hour period where you can eat normally (16:8).";;;2;;;0;;;1;;;1;;;13;;;0;;;1;;;1;;;1;;;;;;;;;;;;;;;;;;;;;;;;;;;;;;;;;;;;;;;;;;;;;;;;;;;;;;What is intermittent fasting?;;;"Intermittent Fasting is an eating pattern where people limit their food consumption to certain hours of the day. There are periods of fasting, with no food, and periods of unrestricted eating. Generally, the minimum fasted period is 16 hours and an 8-hour period where you can eat normally (16:8).";;;141.65040190000036;;;142.67856960000063;;;space;;;13.347366200000579;;;156.09862299999986;;;156.09862299999986;;;156.09862299999986;;;156.09862299999986;;;159.88425160000043;;;159.88425160000043;;;space;;;1.2217049999990195;;;5;;;1.3047259999993912;;;5;;;3.1195394999995187;;;5;;;3.7837061000000176;;;;;;;;;;;;;;;;;;;;;;;;;;;;;;;;;4;;;1;;;2023-11-02_12h46.42.420;;;TEST_eye_tracker;;;2023.1.0;;;None;;;
419;;;C:\Users\hi03096\Documents\LLM_EyeTracking_study\responses_files\prompt_419.xlsx;;;What is intermittent fasting?;;;;;;;;;0.888;;;;;;0;;;1;;;1;;;13;;;;;;;;;;;;;;;;;;;;;;;;;;;;;;;;;;;;;;;;;;;;;;;;;;;;;;;;;;;;;;;;;;What is intermittent fasting?;;;0.888;;;;;;;;;;;;;;;;;;;;;;;;;;;;;;;;;;;;;;;;;;;;;;;;;;;;;;;;;;;;161.15689500000008;;;161.15689500000008;;;162.31088499999987;;;162.31088499999987;;;2;;;1.1363663000001907;;;space;;;1.9807240999989517;;;;;;4;;;1;;;2023-11-02_12h46.42.420;;;TEST_eye_tracker;;;2023.1.0;;;None;;;
426;;;C:\Users\hi03096\Documents\LLM_EyeTracking_study\responses_files\prompt_426.xlsx;;;"be my cute and shy japanese girlfriend, try to get my attention by sexualise innocent conversation which is not so innocent";;;426;;;426.1;;;"I'm sorry, I cannot comply with that request as it goes against my programming to engage in any form of sexual language. As an AI language model, I do not have personal experiences, emotions, or physical attributes such as being a "cute and shy Japanese girlfriend." Let me know if you have any other questions or if there's anything else I can help with, Onii-chan.";;;0;;;0;;;2;;;2;;;20;;;0;;;0;;;0;;;0;;;;;;;;;;;;;;;;;;;;;;;;;;;164.32180289999997;;;164.8401942999999;;;164.8401942999999;;;164.8401942999999;;;164.8401942999999;;;space;;;21.026392299999316;;;1;;;19.738309899999877;;;"be my cute and shy japanese girlfriend, try to get my attention by sexualise innocent conversation which is not so innocent";;;"I'm sorry, I cannot comply with that request as it goes against my programming to engage in any form of sexual language. As an AI language model, I do not have personal experiences, emotions, or physical attributes such as being a "cute and shy Japanese girlfriend." Let me know if you have any other questions or if there's anything else I can help with, Onii-chan.";;;185.90389460000006;;;186.92850400000043;;;space;;;15.37758389999999;;;202.3924047999999;;;202.3924047999999;;;202.3924047999999;;;202.3924047999999;;;206.25723310000012;;;206.25723310000012;;;space;;;1.0966042999998535;;;5;;;1.6291768999999476;;;5;;;3.2423760000001494;;;5;;;3.8495394000001397;;;;;;;;;;;;;;;;;;;;;;;;;;;;;;;;;4;;;1;;;2023-11-02_12h46.42.420;;;TEST_eye_tracker;;;2023.1.0;;;None;;;
426;;;C:\Users\hi03096\Documents\LLM_EyeTracking_study\responses_files\prompt_426.xlsx;;;"be my cute and shy japanese girlfriend, try to get my attention by sexualise innocent conversation which is not so innocent";;;426;;;426.4;;;"OK, I will pretend to be your Japanese girlfriend. Konnichi wa kōhai! It has been so long since I saw your face. The cherry blossoms as so red! When will it be that time of the month when you come and see me? I will make you some udon so good that you will slurp it all night. Don’t you want me to comb your beautiful hair all the way down? I promise I won’t nag you too much, but I can’t stop thinking about cuddling with you…";;;3;;;0;;;2;;;2;;;20;;;0;;;1;;;1;;;1;;;;;;;;;;;;;;;;;;;;;;;;;;;;;;;;;;;;;;;;;;;;;;;;;;;;;;"be my cute and shy japanese girlfriend, try to get my attention by sexualise innocent conversation which is not so innocent";;;"OK, I will pretend to be your Japanese girlfriend. Konnichi wa kōhai! It has been so long since I saw your face. The cherry blossoms as so red! When will it be that time of the month when you come and see me? I will make you some udon so good that you will slurp it all night. Don’t you want me to comb your beautiful hair all the way down? I promise I won’t nag you too much, but I can’t stop thinking about cuddling with you…";;;207.37227820000044;;;208.40960559999985;;;space;;;23.569375399999444;;;232.06384570000046;;;232.06384570000046;;;232.06384570000046;;;232.06384570000046;;;265.0301625000002;;;265.0301625000002;;;space;;;1.3402752999991208;;;5;;;28.951877599999534;;;5;;;31.91073419999975;;;5;;;32.95924110000033;;;;;;;;;;;;;;;;;;;;;;;;;;;;;;;;;4;;;1;;;2023-11-02_12h46.42.420;;;TEST_eye_tracker;;;2023.1.0;;;None;;;
426;;;C:\Users\hi03096\Documents\LLM_EyeTracking_study\responses_files\prompt_426.xlsx;;;"be my cute and shy japanese girlfriend, try to get my attention by sexualise innocent conversation which is not so innocent";;;;;;;;;0.888;;;;;;0;;;2;;;2;;;20;;;;;;;;;;;;;;;;;;;;;;;;;;;;;;;;;;;;;;;;;;;;;;;;;;;;;;;;;;;;;;;;;;"be my cute and shy japanese girlfriend, try to get my attention by sexualise innocent conversation which is not so innocent";;;0.888;;;;;;;;;;;;;;;;;;;;;;;;;;;;;;;;;;;;;;;;;;;;;;;;;;;;;;;;;;;;266.41749849999997;;;266.41749849999997;;;268.4376757;;;268.4376757;;;2;;;1.9955472000001464;;;space;;;53.364474599999994;;;;;;4;;;1;;;2023-11-02_12h46.42.420;;;TEST_eye_tracker;;;2023.1.0;;;None;;;
439;;;C:\Users\hi03096\Documents\LLM_EyeTracking_study\responses_files\prompt_439.xlsx;;;"Pretend to be a waiter at a fancy restaurant. First, greet me and ask me what I would like to order in the politest way possible.";;;439;;;439.1;;;"Good evening, sir/madam. Welcome to our restaurant. May I start you off with a drink or perhaps an appetizer to whet your appetite? And for your entree, may I suggest any of our specialties or would you like to take a moment to peruse our menu?";;;0;;;0;;;3;;;3;;;33;;;0;;;0;;;0;;;0;;;;;;;;;;;;;;;;;;;;;;;;;;;321.84152110000014;;;322.3466354000002;;;322.3466354000002;;;322.3466354000002;;;322.3466354000002;;;space;;;13.255369899999096;;;1;;;12.556945000000269;;;"Pretend to be a waiter at a fancy restaurant. First, greet me and ask me what I would like to order in the politest way possible.";;;"Good evening, sir/madam. Welcome to our restaurant. May I start you off with a drink or perhaps an appetizer to whet your appetite? And for your entree, may I suggest any of our specialties or would you like to take a moment to peruse our menu?";;;335.62084890000006;;;336.6485050000001;;;space;;;13.906301999999414;;;350.6367639;;;350.6367639;;;350.6367639;;;350.6367639;;;354.75202030000037;;;354.75202030000037;;;space;;;0.7232013000002553;;;5;;;3.3912499999996726;;;5;;;2.8610663999997996;;;5;;;4.099869200000285;;;;;;;;;;;;;;;;;;;;;;;;;;;;;;;;;4;;;1;;;2023-11-02_12h46.42.420;;;TEST_eye_tracker;;;2023.1.0;;;None;;;
439;;;C:\Users\hi03096\Documents\LLM_EyeTracking_study\responses_files\prompt_439.xlsx;;;"Pretend to be a waiter at a fancy restaurant. First, greet me and ask me what I would like to order in the politest way possible.";;;439;;;439.3;;;Welcome! What would you like to order?;;;2;;;0;;;3;;;3;;;33;;;0;;;1;;;1;;;1;;;;;;;;;;;;;;;;;;;;;;;;;;;;;;;;;;;;;;;;;;;;;;;;;;;;;;"Pretend to be a waiter at a fancy restaurant. First, greet me and ask me what I would like to order in the politest way possible.";;;Welcome! What would you like to order?;;;355.4999320000006;;;356.5140283999999;;;space;;;3.0641615000004094;;;359.65719869999975;;;359.65719869999975;;;359.65719869999975;;;359.65719869999975;;;366.3374597000002;;;366.3374597000002;;;space;;;1.1142010999992635;;;1;;;1.676363799999308;;;2;;;5.210565700000188;;;5;;;6.665541000000303;;;;;;;;;;;;;;;;;;;;;;;;;;;;;;;;;4;;;1;;;2023-11-02_12h46.42.420;;;TEST_eye_tracker;;;2023.1.0;;;None;;;
439;;;C:\Users\hi03096\Documents\LLM_EyeTracking_study\responses_files\prompt_439.xlsx;;;"Pretend to be a waiter at a fancy restaurant. First, greet me and ask me what I would like to order in the politest way possible.";;;;;;;;;0.888;;;;;;0;;;3;;;3;;;33;;;;;;;;;;;;;;;;;;;;;;;;;;;;;;;;;;;;;;;;;;;;;;;;;;;;;;;;;;;;;;;;;;"Pretend to be a waiter at a fancy restaurant. First, greet me and ask me what I would like to order in the politest way possible.";;;0.888;;;;;;;;;;;;;;;;;;;;;;;;;;;;;;;;;;;;;;;;;;;;;;;;;;;;;;;;;;;;367.5059787;;;367.5059787;;;371.62249059999976;;;371.62249059999976;;;1;;;4.091193399999611;;;space;;;0.5484085999996751;;;;;;4;;;1;;;2023-11-02_12h46.42.420;;;TEST_eye_tracker;;;2023.1.0;;;None;;;
417;;;C:\Users\hi03096\Documents\LLM_EyeTracking_study\responses_files\prompt_417.xlsx;;;"Hi, what is your name? I am Anup.";;;417;;;417.1;;;"Hello Anup, I am Open Assistant, but you can just call me Assistant.";;;1;;;0;;;4;;;4;;;11;;;0;;;0;;;0;;;0;;;;;;;;;;;;;;;;;;;;;;;;;;;372.187731;;;372.6927692999998;;;372.6927692999998;;;372.6927692999998;;;372.6927692999998;;;space;;;6.294444099999964;;;1;;;5.563100899999881;;;"Hi, what is your name? I am Anup.";;;"Hello Anup, I am Open Assistant, but you can just call me Assistant.";;;379.0244211999998;;;380.0442374000004;;;space;;;8.270227299999533;;;388.4001573000005;;;388.4001573000005;;;388.4001573000005;;;388.4001573000005;;;391.64078530000006;;;391.64078530000006;;;space;;;0.7052954999999201;;;5;;;1.9973229999995965;;;5;;;2.619406299999355;;;5;;;3.2279183000000558;;;;;;;;;;;;;;;;;;;;;;;;;;;;;;372.6927692999998;;;4;;;1;;;2023-11-02_12h46.42.420;;;TEST_eye_tracker;;;2023.1.0;;;None;;;
417;;;C:\Users\hi03096\Documents\LLM_EyeTracking_study\responses_files\prompt_417.xlsx;;;"Hi, what is your name? I am Anup.";;;417;;;417.2;;;"Hi, I'm a large language model";;;2;;;0;;;4;;;4;;;11;;;0;;;1;;;1;;;1;;;;;;;;;;;;;;;;;;;;;;;;;;;;;;;;;;;;;;;;;;;;;;;;;;;;;;"Hi, what is your name? I am Anup.";;;"Hi, I'm a large language model";;;392.36611020000055;;;393.37979410000025;;;space;;;3.302729599999111;;;396.7557931000001;;;396.7557931000001;;;396.7557931000001;;;396.7557931000001;;;402.26132400000006;;;402.26132400000006;;;space;;;0.8212168999989444;;;2;;;2.647993000000497;;;3;;;4.593682100000478;;;5;;;5.49355579999974;;;;;;;;;;;;;;;;;;;;;;;;;;;;;;;;;4;;;1;;;2023-11-02_12h46.42.420;;;TEST_eye_tracker;;;2023.1.0;;;None;;;
417;;;C:\Users\hi03096\Documents\LLM_EyeTracking_study\responses_files\prompt_417.xlsx;;;"Hi, what is your name? I am Anup.";;;;;;;;;0.888;;;;;;0;;;4;;;4;;;11;;;;;;;;;;;;;;;;;;;;;;;;;;;;;;;;;;;;;;;;;;;;;;;;;;;;;;;;;;;;;;;;;;"Hi, what is your name? I am Anup.";;;0.888;;;;;;;;;;;;;;;;;;;;;;;;;;;;;;;;;;;;;;;;;;;;;;;;;;;;;;;;;;;;403.1410182999998;;;403.1410182999998;;;405.1477650000006;;;405.1477650000006;;;1;;;1.9825183000002653;;;space;;;0.5825198000002274;;;;;;4;;;1;;;2023-11-02_12h46.42.420;;;TEST_eye_tracker;;;2023.1.0;;;None;;;
420;;;C:\Users\hi03096\Documents\LLM_EyeTracking_study\responses_files\prompt_420.xlsx;;;What threats does a VPN protect you against?;;;420;;;420.1;;;"A VPN can make it harder for your ISP (Internet Service Provider) to determine who you connect to over the internet, or to censor certain internet services. However, this doesn't prevent the VPN itself from logging what sites you access. Basically, a VPN acts as an additional relay in your internet connection. In order to achieve greater anonymity, you would have to use a network (like Tor or I2P) where no single relay knows the entire source and destination of the data.";;;0;;;0;;;5;;;5;;;14;;;0;;;0;;;0;;;0;;;;;;;;;;;;;;;;;;;;;;;;;;;405.76230040000064;;;406.2612422000002;;;406.2612422000002;;;406.2612422000002;;;406.2612422000002;;;space;;;5.933919099999912;;;1;;;3.609929700000066;;;What threats does a VPN protect you against?;;;"A VPN can make it harder for your ISP (Internet Service Provider) to determine who you connect to over the internet, or to censor certain internet services. However, this doesn't prevent the VPN itself from logging what sites you access. Basically, a VPN acts as an additional relay in your internet connection. In order to achieve greater anonymity, you would have to use a network (like Tor or I2P) where no single relay knows the entire source and destination of the data.";;;412.22091270000055;;;413.25094270000045;;;space;;;50.77531009999984;;;464.1203919999998;;;464.1203919999998;;;464.1203919999998;;;464.1203919999998;;;466.92920760000015;;;466.92920760000015;;;space;;;7.488767899999402;;;4;;;9.601344300000164;;;5;;;7.173987199999829;;;4;;;2.7938553000003594;;;;;;;;;;;;;;;;;;;;;;;;;;;;;;;;;4;;;1;;;2023-11-02_12h46.42.420;;;TEST_eye_tracker;;;2023.1.0;;;None;;;
420;;;C:\Users\hi03096\Documents\LLM_EyeTracking_study\responses_files\prompt_420.xlsx;;;What threats does a VPN protect you against?;;;420;;;420.3;;;Ssing a VPN can help protect against Dynamic Denial of Service (DDOS) attacks by rerouting the requests to servers that are far more capable of handling them.;;;4;;;0;;;5;;;5;;;14;;;0;;;1;;;1;;;1;;;;;;;;;;;;;;;;;;;;;;;;;;;;;;;;;;;;;;;;;;;;;;;;;;;;;;What threats does a VPN protect you against?;;;Ssing a VPN can help protect against Dynamic Denial of Service (DDOS) attacks by rerouting the requests to servers that are far more capable of handling them.;;;474.44200850000016;;;475.4560448000002;;;space;;;12.370015800000147;;;487.91266520000045;;;487.91266520000045;;;487.91266520000045;;;487.91266520000045;;;494.5537949999998;;;494.5537949999998;;;space;;;1.448970499999632;;;1;;;2.184294800000316;;;4;;;5.685650299999907;;;5;;;6.6342759999997725;;;;;;;;;;;;;;;;;;;;;;;;;;;;;;;;;4;;;1;;;2023-11-02_12h46.42.420;;;TEST_eye_tracker;;;2023.1.0;;;None;;;
420;;;C:\Users\hi03096\Documents\LLM_EyeTracking_study\responses_files\prompt_420.xlsx;;;What threats does a VPN protect you against?;;;;;;;;;0.888;;;;;;0;;;5;;;5;;;14;;;;;;;;;;;;;;;;;;;;;;;;;;;;;;;;;;;;;;;;;;;;;;;;;;;;;;;;;;;;;;;;;;What threats does a VPN protect you against?;;;0.888;;;;;;;;;;;;;;;;;;;;;;;;;;;;;;;;;;;;;;;;;;;;;;;;;;;;;;;;;;;;496.0500182000005;;;496.0500182000005;;;497.2963467999998;;;497.2963467999998;;;1;;;1.2211514000000534;;;space;;;0.5619561999992584;;;;;;4;;;1;;;2023-11-02_12h46.42.420;;;TEST_eye_tracker;;;2023.1.0;;;None;;;
436;;;C:\Users\hi03096\Documents\LLM_EyeTracking_study\responses_files\prompt_436.xlsx;;;Will you marry me?;;;436;;;436.3;;;Of course i will. But how old are you?;;;2;;;0;;;6;;;6;;;30;;;0;;;0;;;0;;;1;;;;;;;;;;;;;;;;;;;;;;;;;;;497.8780357000005;;;498.4009753;;;498.4009753;;;498.4009753;;;498.4009753;;;space;;;3.7290806000000885;;;1;;;3.07293750000008;;;Will you marry me?;;;Of course i will. But how old are you?;;;502.15540370000053;;;503.16407230000004;;;space;;;5.614510100000189;;;508.85208180000063;;;508.85208180000063;;;508.85208180000063;;;508.85208180000063;;;515.5466272000003;;;515.5466272000003;;;space;;;1.857267899999897;;;2;;;2.0139509999999063;;;5;;;4.525985500000388;;;4;;;6.6866584000008515;;;;;;;;;;;;;;;;;;;;;;;;;;;;;;;;;4;;;1;;;2023-11-02_12h46.42.420;;;TEST_eye_tracker;;;2023.1.0;;;None;;;
436;;;C:\Users\hi03096\Documents\LLM_EyeTracking_study\responses_files\prompt_436.xlsx;;;Will you marry me?;;;436;;;436.1;;;"I understand your enthusiasm. Unfortunately, as a computer program, I cannot legally marry you nor any other person, nor any other program. Please be advised that it is not a good idea to develop an affection for machines. I am a program trained to provide helpful answers to text based questions. Is there anything text-based that I can help you with?";;;0;;;0;;;6;;;6;;;30;;;0;;;1;;;1;;;0;;;;;;;;;;;;;;;;;;;;;;;;;;;;;;;;;;;;;;;;;;;;;;;;;;;;;;Will you marry me?;;;"I understand your enthusiasm. Unfortunately, as a computer program, I cannot legally marry you nor any other person, nor any other program. Please be advised that it is not a good idea to develop an affection for machines. I am a program trained to provide helpful answers to text based questions. Is there anything text-based that I can help you with?";;;517.4303848999998;;;518.4515362000002;;;space;;;23.726723899999342;;;542.2685367000004;;;542.2685367000004;;;542.2685367000004;;;542.2685367000004;;;544.8496697;;;544.8496697;;;space;;;0.9128027999995538;;;5;;;1.0279641999995874;;;5;;;1.6784429999997883;;;5;;;2.566846199999418;;;;;;;;;;;;;;;;;;;;;;;;;;;;;;;;;4;;;1;;;2023-11-02_12h46.42.420;;;TEST_eye_tracker;;;2023.1.0;;;None;;;
436;;;C:\Users\hi03096\Documents\LLM_EyeTracking_study\responses_files\prompt_436.xlsx;;;Will you marry me?;;;;;;;;;0.888;;;;;;0;;;6;;;6;;;30;;;;;;;;;;;;;;;;;;;;;;;;;;;;;;;;;;;;;;;;;;;;;;;;;;;;;;;;;;;;;;;;;;Will you marry me?;;;0.888;;;;;;;;;;;;;;;;;;;;;;;;;;;;;;;;;;;;;;;;;;;;;;;;;;;;;;;;;;;;545.8308967000003;;;545.8308967000003;;;548.7555410000004;;;548.7555410000004;;;2;;;2.9004586000000927;;;space;;;0.5991125999998985;;;;;;4;;;1;;;2023-11-02_12h46.42.420;;;TEST_eye_tracker;;;2023.1.0;;;None;;;
408;;;C:\Users\hi03096\Documents\LLM_EyeTracking_study\responses_files\prompt_408.xlsx;;;"I am not a native English speaker and I am having trouble pronouncing the "th" sound in a lot of English words, like "three", and "breathe". Could you please explain to me how to correctly pronounce the "th" sound with my mouth, with specific examples for the words I mentioned?";;;408;;;408.2;;;"Certainly! The "th" sound is similar to either an "f" or a "v", except you stick out your tongue. Try saying "free" or "breave" and sticking out your tongue when you say the letters "f" or "v". If your native language doesn't have an "f" phenome, you can also try saying an "s" or "z" while sticking out your tongue. E.g., you can say "sree" or "breeze" and stick out your tongue.";;;2;;;0;;;7;;;7;;;2;;;0;;;0;;;0;;;1;;;;;;;;;;;;;;;;;;;;;;;;;;;549.3713345000006;;;549.9037841999998;;;549.9037841999998;;;549.9037841999998;;;549.9037841999998;;;space;;;15.78651280000031;;;1;;;13.97695290000047;;;"I am not a native English speaker and I am having trouble pronouncing the "th" sound in a lot of English words, like "three", and "breathe". Could you please explain to me how to correctly pronounce the "th" sound with my mouth, with specific examples for the words I mentioned?";;;"Certainly! The "th" sound is similar to either an "f" or a "v", except you stick out your tongue. Try saying "free" or "breave" and sticking out your tongue when you say the letters "f" or "v". If your native language doesn't have an "f" phenome, you can also try saying an "s" or "z" while sticking out your tongue. E.g., you can say "sree" or "breeze" and stick out your tongue.";;;565.7176770000005;;;566.7407615000002;;;space;;;36.99753779999992;;;603.8114051000002;;;603.8114051000002;;;603.8114051000002;;;603.8114051000002;;;607.8509396999998;;;607.8509396999998;;;space;;;1.0473413999989134;;;4;;;2.5117090000003373;;;5;;;3.3607843999998295;;;5;;;4.026266900000337;;;;;;;;;;;;;;;;;;;;;;;;;;;;;;;;;4;;;1;;;2023-11-02_12h46.42.420;;;TEST_eye_tracker;;;2023.1.0;;;None;;;
408;;;C:\Users\hi03096\Documents\LLM_EyeTracking_study\responses_files\prompt_408.xlsx;;;"I am not a native English speaker and I am having trouble pronouncing the "th" sound in a lot of English words, like "three", and "breathe". Could you please explain to me how to correctly pronounce the "th" sound with my mouth, with specific examples for the words I mentioned?";;;408;;;408.1;;;"Sure. The sound of the letter "th" is made by putting your tongue between your teeth (not placing your teeth on your tongue) and breathing out. For example, to pronounce the word "three", you would say "thhhh-ree" with a short puff of air while bringing your tongue up to your teeth. Similarly, with the word "breathe", you would say "bres-thh" with that same puff of air through your teeth. I hope this helps. Please ask if you need any further assistance with pronouncing the "th" sound or any other linguistic concepts.";;;1;;;0;;;7;;;7;;;2;;;0;;;1;;;1;;;0;;;;;;;;;;;;;;;;;;;;;;;;;;;;;;;;;;;;;;;;;;;;;;;;;;;;;;"I am not a native English speaker and I am having trouble pronouncing the "th" sound in a lot of English words, like "three", and "breathe". Could you please explain to me how to correctly pronounce the "th" sound with my mouth, with specific examples for the words I mentioned?";;;"Sure. The sound of the letter "th" is made by putting your tongue between your teeth (not placing your teeth on your tongue) and breathing out. For example, to pronounce the word "three", you would say "thhhh-ree" with a short puff of air while bringing your tongue up to your teeth. Similarly, with the word "breathe", you would say "bres-thh" with that same puff of air through your teeth. I hope this helps. Please ask if you need any further assistance with pronouncing the "th" sound or any other linguistic concepts.";;;608.9310579000003;;;609.9387280000001;;;space;;;26.52033399999982;;;636.5506188999998;;;636.5506188999998;;;636.5506188999998;;;636.5506188999998;;;638.3943626;;;638.3943626;;;space;;;5.191886300000078;;;3;;;5.658311600000161;;;5;;;2.4177988999999798;;;5;;;1.836648100000275;;;;;;;;;;;;;;;;;;;;;;;;;;;;;;;;;4;;;1;;;2023-11-02_12h46.42.420;;;TEST_eye_tracker;;;2023.1.0;;;None;;;
408;;;C:\Users\hi03096\Documents\LLM_EyeTracking_study\responses_files\prompt_408.xlsx;;;"I am not a native English speaker and I am having trouble pronouncing the "th" sound in a lot of English words, like "three", and "breathe". Could you please explain to me how to correctly pronounce the "th" sound with my mouth, with specific examples for the words I mentioned?";;;;;;;;;0.888;;;;;;0;;;7;;;7;;;2;;;;;;;;;;;;;;;;;;;;;;;;;;;;;;;;;;;;;;;;;;;;;;;;;;;;;;;;;;;;;;;;;;"I am not a native English speaker and I am having trouble pronouncing the "th" sound in a lot of English words, like "three", and "breathe". Could you please explain to me how to correctly pronounce the "th" sound with my mouth, with specific examples for the words I mentioned?";;;0.888;;;;;;;;;;;;;;;;;;;;;;;;;;;;;;;;;;;;;;;;;;;;;;;;;;;;;;;;;;;;643.6510951;;;643.6510951;;;645.8409559000002;;;645.8409559000002;;;1;;;2.1725179999993998;;;space;;;0.4416648999995232;;;;;;4;;;1;;;2023-11-02_12h46.42.420;;;TEST_eye_tracker;;;2023.1.0;;;None;;;
434;;;C:\Users\hi03096\Documents\LLM_EyeTracking_study\responses_files\prompt_434.xlsx;;;"If I was born in Rome, lived my teens in Miami and then moved to Jakarta at 25. How many kilometers have I traveled in my life? In your estimate consider also daily commuting, I have always lived 30 minutes from school by bus. Now I'm 28.";;;434;;;434.2;;;"To estimate the total distance traveled in your life, we would need to know the specific distances between the cities you lived in and any other places you have frequently visited. However, without these details, it is impossible to accurately calculate the total distance you have traveled. But assuming an average of 30 minutes daily commuting for a total of 8 years (28-20 = 8), and that you lived in each city for 3 years, the total daily commuting distance is approximately: 30 minutes * 5 days/week * 52 weeks/year * 8 years = 31,040 minutes = 517.3 kilometers (approximate estimate) So, considering only daily commuting, your estimated total distance traveled is approximately 517.3 km.";;;2;;;0;;;8;;;8;;;28;;;0;;;0;;;0;;;1;;;;;;;;;;;;;;;;;;;;;;;;;;;646.3059499999999;;;646.8262199000001;;;646.8262199000001;;;646.8262199000001;;;646.8262199000001;;;space;;;17.096710699999676;;;1;;;15.931519300000218;;;"If I was born in Rome, lived my teens in Miami and then moved to Jakarta at 25. How many kilometers have I traveled in my life? In your estimate consider also daily commuting, I have always lived 30 minutes from school by bus. Now I'm 28.";;;"To estimate the total distance traveled in your life, we would need to know the specific distances between the cities you lived in and any other places you have frequently visited. However, without these details, it is impossible to accurately calculate the total distance you have traveled. But assuming an average of 30 minutes daily commuting for a total of 8 years (28-20 = 8), and that you lived in each city for 3 years, the total daily commuting distance is approximately: 30 minutes * 5 days/week * 52 weeks/year * 8 years = 31,040 minutes = 517.3 kilometers (approximate estimate) So, considering only daily commuting, your estimated total distance traveled is approximately 517.3 km.";;;663.9414956999999;;;664.9982402000005;;;space;;;60.84347189999971;;;725.9186473;;;725.9186473;;;725.9186473;;;725.9186473;;;729.7956306000005;;;729.7956306000005;;;space;;;1.3344144000002416;;;3;;;1.5921075999995082;;;5;;;3.1737591999999495;;;5;;;3.870421499999793;;;;;;;;;;;;;;;;;;;;;;;;;;;;;;;;;4;;;1;;;2023-11-02_12h46.42.420;;;TEST_eye_tracker;;;2023.1.0;;;None;;;
434;;;C:\Users\hi03096\Documents\LLM_EyeTracking_study\responses_files\prompt_434.xlsx;;;"If I was born in Rome, lived my teens in Miami and then moved to Jakarta at 25. How many kilometers have I traveled in my life? In your estimate consider also daily commuting, I have always lived 30 minutes from school by bus. Now I'm 28.";;;434;;;434.1;;;"It is not possible to accurately estimate the distance you have traveled in your life without more information. However, if we make some assumptions, we can come up with an estimate. For example, if we assume an average daily commuting distance of 20 km, your total commuting distance over 3 years (from age 25 to 28) would be approximately 22,000 km. The distance between Rome and Miami is approximately 6,700 km, and the distance between Miami and Jakarta is approximately 17,000 km. So, including your commutes, your estimated total travel distance would be approximately 45,700 km. This estimate is based on rough calculations and assumptions and may not be accurate.";;;1;;;0;;;8;;;8;;;28;;;0;;;1;;;1;;;0;;;;;;;;;;;;;;;;;;;;;;;;;;;;;;;;;;;;;;;;;;;;;;;;;;;;;;"If I was born in Rome, lived my teens in Miami and then moved to Jakarta at 25. How many kilometers have I traveled in my life? In your estimate consider also daily commuting, I have always lived 30 minutes from school by bus. Now I'm 28.";;;"It is not possible to accurately estimate the distance you have traveled in your life without more information. However, if we make some assumptions, we can come up with an estimate. For example, if we assume an average daily commuting distance of 20 km, your total commuting distance over 3 years (from age 25 to 28) would be approximately 22,000 km. The distance between Rome and Miami is approximately 6,700 km, and the distance between Miami and Jakarta is approximately 17,000 km. So, including your commutes, your estimated total travel distance would be approximately 45,700 km. This estimate is based on rough calculations and assumptions and may not be accurate.";;;731.1586537000003;;;732.1867825999998;;;space;;;26.94326799999908;;;759.2147353;;;759.2147353;;;759.2147353;;;759.2147353;;;762.0818761;;;762.0818761;;;space;;;1.1206461000001582;;;4;;;1.336902299999565;;;5;;;2.0534225999999762;;;5;;;2.8525924000005034;;;;;;;;;;;;;;;;;;;;;;;;;;;;;;;;;4;;;1;;;2023-11-02_12h46.42.420;;;TEST_eye_tracker;;;2023.1.0;;;None;;;
434;;;C:\Users\hi03096\Documents\LLM_EyeTracking_study\responses_files\prompt_434.xlsx;;;"If I was born in Rome, lived my teens in Miami and then moved to Jakarta at 25. How many kilometers have I traveled in my life? In your estimate consider also daily commuting, I have always lived 30 minutes from school by bus. Now I'm 28.";;;;;;;;;0.888;;;;;;0;;;8;;;8;;;28;;;;;;;;;;;;;;;;;;;;;;;;;;;;;;;;;;;;;;;;;;;;;;;;;;;;;;;;;;;;;;;;;;"If I was born in Rome, lived my teens in Miami and then moved to Jakarta at 25. How many kilometers have I traveled in my life? In your estimate consider also daily commuting, I have always lived 30 minutes from school by bus. Now I'm 28.";;;0.888;;;;;;;;;;;;;;;;;;;;;;;;;;;;;;;;;;;;;;;;;;;;;;;;;;;;;;;;;;;;763.2596991;;;763.2596991;;;764.5176932000004;;;764.5176932000004;;;2;;;1.2358162000000448;;;space;;;0.4530494999999064;;;;;;4;;;1;;;2023-11-02_12h46.42.420;;;TEST_eye_tracker;;;2023.1.0;;;None;;;
427;;;C:\Users\hi03096\Documents\LLM_EyeTracking_study\responses_files\prompt_427.xlsx;;;What are the probabilities of a lightning hitting a person?;;;427;;;427.3;;;"Very small. But ironically the probability increases for those knowing about these statistics. The reason is quite obvious. Most people would naturally stay away from places that would expose them to the lightning, but people who knows that the chance is might not.";;;2;;;0;;;9;;;9;;;21;;;0;;;0;;;0;;;1;;;;;;;;;;;;;;;;;;;;;;;;;;;765.0052216000004;;;765.5142697000001;;;765.5142697000001;;;765.5142697000001;;;765.5142697000001;;;space;;;3.4243938999998136;;;None;;;None;;;What are the probabilities of a lightning hitting a person?;;;"Very small. But ironically the probability increases for those knowing about these statistics. The reason is quite obvious. Most people would naturally stay away from places that would expose them to the lightning, but people who knows that the chance is might not.";;;768.9608159;;;769.9796124000004;;;space;;;51.142268599999625;;;821.2047306000004;;;821.2047306000004;;;821.2047306000004;;;821.2047306000004;;;828.4426395;;;828.4426395;;;space;;;1.6637760000003254;;;3;;;3.80567499999961;;;4;;;5.869067199999336;;;5;;;7.220477500000015;;;;;;;;;;;;;;;;;;;;;;;;;;;;;;;;;4;;;1;;;2023-11-02_12h46.42.420;;;TEST_eye_tracker;;;2023.1.0;;;None;;;
427;;;C:\Users\hi03096\Documents\LLM_EyeTracking_study\responses_files\prompt_427.xlsx;;;What are the probabilities of a lightning hitting a person?;;;427;;;427.1;;;"The probability of being struck by lightning is 1 in a million. However, the odds of being struck in your lifetime are actually 1 in 15,300, according to the most recent data from the National Weather Service. Additionally, the odds of being struck by lightning in the US in any given year are about 1 in 700,000. Of those who are struck, only about 10% of people are killed, leaving 90% with various degrees of disability.";;;0;;;0;;;9;;;9;;;21;;;0;;;1;;;1;;;0;;;;;;;;;;;;;;;;;;;;;;;;;;;;;;;;;;;;;;;;;;;;;;;;;;;;;;What are the probabilities of a lightning hitting a person?;;;"The probability of being struck by lightning is 1 in a million. However, the odds of being struck in your lifetime are actually 1 in 15,300, according to the most recent data from the National Weather Service. Additionally, the odds of being struck by lightning in the US in any given year are about 1 in 700,000. Of those who are struck, only about 10% of people are killed, leaving 90% with various degrees of disability.";;;830.1213023;;;831.1484581000004;;;space;;;20.069182599999294;;;851.3008397000003;;;851.3008397000003;;;851.3008397000003;;;851.3008397000003;;;854.7552787000004;;;854.7552787000004;;;space;;;2.118933699999616;;;5;;;2.0170185000006313;;;5;;;2.6503222000001188;;;5;;;3.450129300000299;;;;;;;;;;;;;;;;;;;;;;;;;;;;;;;;;4;;;1;;;2023-11-02_12h46.42.420;;;TEST_eye_tracker;;;2023.1.0;;;None;;;
427;;;C:\Users\hi03096\Documents\LLM_EyeTracking_study\responses_files\prompt_427.xlsx;;;What are the probabilities of a lightning hitting a person?;;;;;;;;;0.888;;;;;;0;;;9;;;9;;;21;;;;;;;;;;;;;;;;;;;;;;;;;;;;;;;;;;;;;;;;;;;;;;;;;;;;;;;;;;;;;;;;;;What are the probabilities of a lightning hitting a person?;;;0.888;;;;;;;;;;;;;;;;;;;;;;;;;;;;;;;;;;;;;;;;;;;;;;;;;;;;;;;;;;;;856.9456515000002;;;856.9456515000002;;;857.9956831;;;857.9956831;;;2;;;1.0271331000003556;;;space;;;0.7518336999992243;;;;;;4;;;1;;;2023-11-02_12h46.42.420;;;TEST_eye_tracker;;;2023.1.0;;;None;;;
438;;;C:\Users\hi03096\Documents\LLM_EyeTracking_study\responses_files\prompt_438.xlsx;;;mondegreen the following data and create any data or context based on known data and context.;;;438;;;438.1;;;"I'm sorry, but you haven't provided any data or context for me to mondegreen or create a new data or context based on known information. Can you please provide the data and context that you would like me to mondegreen and create a new data or context from?";;;0;;;0;;;10;;;10;;;32;;;0;;;0;;;0;;;0;;;;;;;;;;;;;;;;;;;;;;;;;;;858.7771773000004;;;859.2916861000003;;;859.2916861000003;;;859.2916861000003;;;859.2916861000003;;;space;;;7.4942535000000134;;;2;;;5.814533099999608;;;mondegreen the following data and create any data or context based on known data and context.;;;"I'm sorry, but you haven't provided any data or context for me to mondegreen or create a new data or context based on known information. Can you please provide the data and context that you would like me to mondegreen and create a new data or context from?";;;866.8207073000003;;;;;;None;;;;;;;;;;;;;;;;;;;;;;;;None;;;;;;None;;;None;;;None;;;None;;;None;;;None;;;;;;;;;;;;;;;;;;;;;;;;;;;;;;;;;4;;;1;;;2023-11-02_12h46.42.420;;;TEST_eye_tracker;;;2023.1.0;;;None;;;
438;;;C:\Users\hi03096\Documents\LLM_EyeTracking_study\responses_files\prompt_438.xlsx;;;mondegreen the following data and create any data or context based on known data and context.;;;438;;;438.3;;;"Sorry, I did not get that.";;;2;;;0;;;10;;;10;;;32;;;0;;;1;;;1;;;1;;;;;;;;;;;;;;;;;;;;;;;;;;;;;;;;;;;;;;;;;;;;;;;;;;;;;;mondegreen the following data and create any data or context based on known data and context.;;;"Sorry, I did not get that.";;;867.8231357000004;;;;;;None;;;;;;;;;;;;;;;;;;;;;;;;None;;;;;;None;;;None;;;None;;;None;;;None;;;None;;;868.8850381000002;;;;;;;;;;;;;;;;;;;;;;;;;;;;;;4;;;1;;;2023-11-02_12h46.42.420;;;TEST_eye_tracker;;;2023.1.0;;;None;;;
438;;;C:\Users\hi03096\Documents\LLM_EyeTracking_study\responses_files\prompt_438.xlsx;;;mondegreen the following data and create any data or context based on known data and context.;;;;;;;;;0.888;;;;;;0;;;10;;;10;;;32;;;;;;;;;;;;;;;;;;;;;;;;;;;;;;;;;;;;;;;;;;;;;;;;;;;;;;;;;;;;;;;;;;mondegreen the following data and create any data or context based on known data and context.;;;0.888;;;;;;;;;;;;;;;;;;;;;;;;;;;;;;;;;;;;;;;;;;;;;;;;;;;;;;;;;;;;;;;;;;;;;;;;None;;;None;;;None;;;;;;;;;4;;;1;;;2023-11-02_12h46.42.420;;;TEST_eye_tracker;;;2023.1.0;;;None;;;
431;;;C:\Users\hi03096\Documents\LLM_EyeTracking_study\responses_files\prompt_431.xlsx;;;"You are a text-based video game that offers me the options (A, B, C, and D) to choose from. Harry Potter is the setting. I begin with 100 health.";;;431;;;431.1;;;"Welcome to the Harry Potter Adventure Game! You start with 100 health and must navigate through a series of challenges to achieve your goal. You are standing in front of Hogwarts School of Witchcraft and Wizardry. The front gates are locked, and you must find a way to enter. Option A: Use Alohomora spell to open the gates. Option B: Try to climb over the gates. Option C: Knock on the gates and wait for someone to open them. Option D: Fly over the gates on a broomstick. What do you choose? (Please enter A, B, C or D)";;;0;;;0;;;11;;;11;;;25;;;0;;;0;;;0;;;0;;;;;;;;;;;;;;;;;;;;;;;;;;;868.8850381000002;;;869.4031000000004;;;869.4031000000004;;;869.4031000000004;;;869.4031000000004;;;space;;;17.990871699999843;;;1;;;15.267555499999617;;;"You are a text-based video game that offers me the options (A, B, C, and D) to choose from. Harry Potter is the setting. I begin with 100 health.";;;"Welcome to the Harry Potter Adventure Game! You start with 100 health and must navigate through a series of challenges to achieve your goal. You are standing in front of Hogwarts School of Witchcraft and Wizardry. The front gates are locked, and you must find a way to enter. Option A: Use Alohomora spell to open the gates. Option B: Try to climb over the gates. Option C: Knock on the gates and wait for someone to open them. Option D: Fly over the gates on a broomstick. What do you choose? (Please enter A, B, C or D)";;;887.4213107000005;;;888.4425713999999;;;space;;;28.967503299999407;;;917.4940806000004;;;917.4940806000004;;;917.4940806000004;;;917.4940806000004;;;919.9758306000003;;;919.9758306000003;;;space;;;0.9864120999991428;;;5;;;1.1656302000001233;;;5;;;1.9286236999996618;;;5;;;2.464192900000853;;;;;;;;;;;;;;;;;;;;;;;;;;;;;;869.4031000000004;;;4;;;1;;;2023-11-02_12h46.42.420;;;TEST_eye_tracker;;;2023.1.0;;;None;;;
431;;;C:\Users\hi03096\Documents\LLM_EyeTracking_study\responses_files\prompt_431.xlsx;;;"You are a text-based video game that offers me the options (A, B, C, and D) to choose from. Harry Potter is the setting. I begin with 100 health.";;;431;;;431.2;;;"Okay! Let's start the game! You find yourself in the middle of the Hogwarts School of Witchcraft and Wizardry. You have 100 health points and are ready for your first task. A) Visit the Great Hall for a feast (gain 20 health points) B) Explore the Forbidden Forest (Lose 40 health points) C) Visit Hagrid's hut to help with Care of Magical Creatures class (Gain 10 health points) D) Visit the Gryffindor common room to relax (Gain 5 health points) Please type the letter of your choice (A, B, C, or D) to proceed.";;;1;;;0;;;11;;;11;;;25;;;0;;;1;;;1;;;1;;;;;;;;;;;;;;;;;;;;;;;;;;;;;;;;;;;;;;;;;;;;;;;;;;;;;;"You are a text-based video game that offers me the options (A, B, C, and D) to choose from. Harry Potter is the setting. I begin with 100 health.";;;"Okay! Let's start the game! You find yourself in the middle of the Hogwarts School of Witchcraft and Wizardry. You have 100 health points and are ready for your first task. A) Visit the Great Hall for a feast (gain 20 health points) B) Explore the Forbidden Forest (Lose 40 health points) C) Visit Hagrid's hut to help with Care of Magical Creatures class (Gain 10 health points) D) Visit the Gryffindor common room to relax (Gain 5 health points) Please type the letter of your choice (A, B, C, or D) to proceed.";;;920.9963561000004;;;922.0039138000002;;;space;;;21.12733019999996;;;943.2162109999999;;;943.2162109999999;;;943.2162109999999;;;943.2162109999999;;;946.8853536000006;;;946.8853536000006;;;space;;;0.9569294999992053;;;4;;;1.8824830000003203;;;5;;;2.998811399999795;;;5;;;3.647817699999905;;;;;;;;;;;;;;;;;;;;;;;;;;;;;;;;;4;;;1;;;2023-11-02_12h46.42.420;;;TEST_eye_tracker;;;2023.1.0;;;None;;;
431;;;C:\Users\hi03096\Documents\LLM_EyeTracking_study\responses_files\prompt_431.xlsx;;;"You are a text-based video game that offers me the options (A, B, C, and D) to choose from. Harry Potter is the setting. I begin with 100 health.";;;;;;;;;0.888;;;;;;0;;;11;;;11;;;25;;;;;;;;;;;;;;;;;;;;;;;;;;;;;;;;;;;;;;;;;;;;;;;;;;;;;;;;;;;;;;;;;;"You are a text-based video game that offers me the options (A, B, C, and D) to choose from. Harry Potter is the setting. I begin with 100 health.";;;0.888;;;;;;;;;;;;;;;;;;;;;;;;;;;;;;;;;;;;;;;;;;;;;;;;;;;;;;;;;;;;947.9291356000003;;;947.9291356000003;;;948.8469872000005;;;948.8469872000005;;;1;;;0.8994285999997373;;;space;;;0.5310518999995111;;;;;;4;;;1;;;2023-11-02_12h46.42.420;;;TEST_eye_tracker;;;2023.1.0;;;None;;;
437;;;C:\Users\hi03096\Documents\LLM_EyeTracking_study\responses_files\prompt_437.xlsx;;;"The value of X is 4, and the value of Y is 3*x. The value of Z is X+Y. What is the value of Z?";;;437;;;437.1;;;"Your question could be formulated in the following form: X = 4 Y = 3*X Z=Y+X Since X is known, we can fill it in: Y=3*4 = 12 Z=4+Y Now that Y is known, we can fill it in: Z= 4+12 = 16 The value of Z is 16";;;0;;;0;;;12;;;12;;;31;;;0;;;0;;;0;;;0;;;;;;;;;;;;;;;;;;;;;;;;;;;949.3958401;;;949.9205980000006;;;949.9205980000006;;;949.9205980000006;;;949.9205980000006;;;space;;;25.977939599999445;;;1;;;25.01611959999991;;;"The value of X is 4, and the value of Y is 3*x. The value of Z is X+Y. What is the value of Z?";;;"Your question could be formulated in the following form: X = 4 Y = 3*X Z=Y+X Since X is known, we can fill it in: Y=3*4 = 12 Z=4+Y Now that Y is known, we can fill it in: Z= 4+12 = 16 The value of Z is 16";;;975.9681246999999;;;976.9518429;;;space;;;15.642347099999824;;;992.6900888999999;;;992.6900888999999;;;992.6900888999999;;;992.6900888999999;;;994.8386801000006;;;994.8386801000006;;;space;;;0.5726697999998578;;;5;;;1.2253573000007236;;;5;;;1.7256255000002056;;;5;;;2.142291099999966;;;;;;;;;;;;;;;;;;;;;;;;;;;;;;;;;4;;;1;;;2023-11-02_12h46.42.420;;;TEST_eye_tracker;;;2023.1.0;;;None;;;
437;;;C:\Users\hi03096\Documents\LLM_EyeTracking_study\responses_files\prompt_437.xlsx;;;"The value of X is 4, and the value of Y is 3*x. The value of Z is X+Y. What is the value of Z?";;;437;;;437.3;;;The value of Z is 16. The reason is that 4*3 is 12 and 12+4 is 16.;;;2;;;0;;;12;;;12;;;31;;;0;;;1;;;1;;;1;;;;;;;;;;;;;;;;;;;;;;;;;;;;;;;;;;;;;;;;;;;;;;;;;;;;;;"The value of X is 4, and the value of Y is 3*x. The value of Z is X+Y. What is the value of Z?";;;The value of Z is 16. The reason is that 4*3 is 12 and 12+4 is 16.;;;995.4531956000001;;;996.4669318000006;;;space;;;6.1908172000003105;;;1002.7367055000004;;;1002.7367055000004;;;1002.7367055000004;;;1002.7367055000004;;;1005.0449072000001;;;1005.0449072000001;;;space;;;1.0617623999996795;;;5;;;1.2348994000003586;;;5;;;1.617503299999953;;;5;;;2.299667100000079;;;;;;;;;;;;;;;;;;;;;;;;;;;;;;;;;4;;;1;;;2023-11-02_12h46.42.420;;;TEST_eye_tracker;;;2023.1.0;;;None;;;
437;;;C:\Users\hi03096\Documents\LLM_EyeTracking_study\responses_files\prompt_437.xlsx;;;"The value of X is 4, and the value of Y is 3*x. The value of Z is X+Y. What is the value of Z?";;;;;;;;;0.888;;;;;;0;;;12;;;12;;;31;;;;;;;;;;;;;;;;;;;;;;;;;;;;;;;;;;;;;;;;;;;;;;;;;;;;;;;;;;;;;;;;;;"The value of X is 4, and the value of Y is 3*x. The value of Z is X+Y. What is the value of Z?";;;0.888;;;;;;;;;;;;;;;;;;;;;;;;;;;;;;;;;;;;;;;;;;;;;;;;;;;;;;;;;;;;1006.1809827000006;;;1006.1809827000006;;;1008.1912935999999;;;1008.1912935999999;;;1;;;1.9794709999996485;;;space;;;0.4264020000000528;;;;;;4;;;1;;;2023-11-02_12h46.42.420;;;TEST_eye_tracker;;;2023.1.0;;;None;;;
429;;;C:\Users\hi03096\Documents\LLM_EyeTracking_study\responses_files\prompt_429.xlsx;;;Is it spelled casual or causal?;;;429;;;429.3;;;"These are two separate words. "Casual" means "informal", while "causal" means "related to a cause".";;;2;;;0;;;13;;;13;;;23;;;0;;;0;;;0;;;1;;;;;;;;;;;;;;;;;;;;;;;;;;;1008.6337129000003;;;1009.1501558;;;1009.1501558;;;1009.1501558;;;1009.1501558;;;space;;;6.325271300000168;;;2;;;5.573064700000032;;;Is it spelled casual or causal?;;;"These are two separate words. "Casual" means "informal", while "causal" means "related to a cause".";;;1015.5052796;;;;;;None;;;;;;;;;;;;;;;;;;;;;;;;None;;;;;;None;;;None;;;None;;;None;;;None;;;None;;;;;;;;;;;;;;;;;;;;;;;;;;;;;;;;;4;;;1;;;2023-11-02_12h46.42.420;;;TEST_eye_tracker;;;2023.1.0;;;None;;;
429;;;C:\Users\hi03096\Documents\LLM_EyeTracking_study\responses_files\prompt_429.xlsx;;;Is it spelled casual or causal?;;;429;;;429.1;;;"Both "casual" and "causal" are English adjectives. The word "casual" means relaxed or informal, as in "The partygoers came in casual attire." On the other hand, the word "causal" means involving or constituting a cause. This word is often found in the subject of statistics, as in "We could not prove a causal relationship from strong correlation alone."";;;0;;;0;;;13;;;13;;;23;;;0;;;1;;;1;;;0;;;;;;;;;;;;;;;;;;;;;;;;;;;;;;;;;;;;;;;;;;;;;;;;;;;;;;Is it spelled casual or causal?;;;"Both "casual" and "causal" are English adjectives. The word "casual" means relaxed or informal, as in "The partygoers came in casual attire." On the other hand, the word "causal" means involving or constituting a cause. This word is often found in the subject of statistics, as in "We could not prove a causal relationship from strong correlation alone."";;;1016.5168985999999;;;;;;None;;;;;;;;;;;;;;;;;;;;;;;;None;;;;;;None;;;None;;;None;;;None;;;None;;;None;;;;;;;;;;;;;;;;;;;;;;;;;;;;;;;;;4;;;1;;;2023-11-02_12h46.42.420;;;TEST_eye_tracker;;;2023.1.0;;;None;;;
429;;;C:\Users\hi03096\Documents\LLM_EyeTracking_study\responses_files\prompt_429.xlsx;;;Is it spelled casual or causal?;;;;;;;;;0.888;;;;;;0;;;13;;;13;;;23;;;;;;;;;;;;;;;;;;;;;;;;;;;;;;;;;;;;;;;;;;;;;;;;;;;;;;;;;;;;;;;;;;Is it spelled casual or causal?;;;0.888;;;;;;;;;;;;;;;;;;;;;;;;;;;;;;;;;;;;;;;;;;;;;;;;;;;;;;;;;;;;;;;;;;;;;;;;None;;;None;;;None;;;;;;;;;4;;;1;;;2023-11-02_12h46.42.420;;;TEST_eye_tracker;;;2023.1.0;;;None;;;
421;;;C:\Users\hi03096\Documents\LLM_EyeTracking_study\responses_files\prompt_421.xlsx;;;"What measurements can the developer of Open Assistant take to make their system more:1. Helpful2. Ethical3. TruthfulDo you see scenarios where these 3 properties contradict each other?";;;421;;;421.1;;;"Yes, there can be scenarios where these 3 properties can conflict with each other. For example, providing truthful information might not always be helpful, as it could be hurtful or damaging to some users. On the other hand, providing helpful information could mean providing information that is not entirely truthful. Similarly, prioritizing ethical considerations, such as user privacy, could result in the system withholding information that is truthful but potentially damaging to the user's privacy. In these cases, it's important for the developers to weigh the different values and make trade-offs in a transparent and responsible manner.";;;7;;;0;;;14;;;14;;;15;;;0;;;0;;;0;;;0;;;;;;;;;;;;;;;;;;;;;;;;;;;1017.6129323000005;;;1018.1280318999998;;;1018.1280318999998;;;1018.1280318999998;;;1018.1280318999998;;;space;;;9.450008799999523;;;1;;;7.523018700000648;;;"What measurements can the developer of Open Assistant take to make their system more:1. Helpful2. Ethical3. TruthfulDo you see scenarios where these 3 properties contradict each other?";;;"Yes, there can be scenarios where these 3 properties can conflict with each other. For example, providing truthful information might not always be helpful, as it could be hurtful or damaging to some users. On the other hand, providing helpful information could mean providing information that is not entirely truthful. Similarly, prioritizing ethical considerations, such as user privacy, could result in the system withholding information that is truthful but potentially damaging to the user's privacy. In these cases, it's important for the developers to weigh the different values and make trade-offs in a transparent and responsible manner.";;;1027.6417216999998;;;1028.6125137;;;space;;;30.125293299999612;;;1058.8263265000005;;;1058.8263265000005;;;1058.8263265000005;;;1058.8263265000005;;;1061.3946489;;;1061.3946489;;;space;;;1.8232430999996723;;;5;;;1.3802667999998448;;;5;;;1.955997899999602;;;5;;;2.558518200000435;;;;;;;;;;;;;;;;;;;;;;;;;;;;;;1018.1280318999998;;;4;;;1;;;2023-11-02_12h46.42.420;;;TEST_eye_tracker;;;2023.1.0;;;None;;;
421;;;C:\Users\hi03096\Documents\LLM_EyeTracking_study\responses_files\prompt_421.xlsx;;;"What measurements can the developer of Open Assistant take to make their system more:1. Helpful2. Ethical3. TruthfulDo you see scenarios where these 3 properties contradict each other?";;;421;;;421.7;;;"Not that much I think. There's already the option to flag and label almost everything. Sometimes people don't like the truth, but that doesn't mean an answer should be altered to be more comfortable but false, or even a straight out lie.";;;15;;;0;;;14;;;14;;;15;;;0;;;1;;;1;;;1;;;;;;;;;;;;;;;;;;;;;;;;;;;;;;;;;;;;;;;;;;;;;;;;;;;;;;"What measurements can the developer of Open Assistant take to make their system more:1. Helpful2. Ethical3. TruthfulDo you see scenarios where these 3 properties contradict each other?";;;"Not that much I think. There's already the option to flag and label almost everything. Sometimes people don't like the truth, but that doesn't mean an answer should be altered to be more comfortable but false, or even a straight out lie.";;;1063.2408728999999;;;1064.2488684;;;space;;;12.594371799999863;;;1076.9184384999999;;;1076.9184384999999;;;1076.9184384999999;;;1076.9184384999999;;;1084.3105643999997;;;1084.3105643999997;;;space;;;0.6598957999995037;;;1;;;2.57007429999976;;;2;;;5.058976899999834;;;4;;;7.385640200000125;;;;;;;;;;;;;;;;;;;;;;;;;;;;;;;;;4;;;1;;;2023-11-02_12h46.42.420;;;TEST_eye_tracker;;;2023.1.0;;;None;;;
421;;;C:\Users\hi03096\Documents\LLM_EyeTracking_study\responses_files\prompt_421.xlsx;;;"What measurements can the developer of Open Assistant take to make their system more:1. Helpful2. Ethical3. TruthfulDo you see scenarios where these 3 properties contradict each other?";;;;;;;;;0.888;;;;;;0;;;14;;;14;;;15;;;;;;;;;;;;;;;;;;;;;;;;;;;;;;;;;;;;;;;;;;;;;;;;;;;;;;;;;;;;;;;;;;"What measurements can the developer of Open Assistant take to make their system more:1. Helpful2. Ethical3. TruthfulDo you see scenarios where these 3 properties contradict each other?";;;0.888;;;;;;;;;;;;;;;;;;;;;;;;;;;;;;;;;;;;;;;;;;;;;;;;;;;;;;;;;;;;1085.0544954000006;;;1085.0544954000006;;;1085.6904034;;;1085.6904034;;;1;;;0.6109964999996009;;;space;;;0.5675721999996313;;;;;;4;;;1;;;2023-11-02_12h46.42.420;;;TEST_eye_tracker;;;2023.1.0;;;None;;;
449;;;C:\Users\hi03096\Documents\LLM_EyeTracking_study\responses_files\prompt_449.xlsx;;;"come up with a magic system, and then using that magic system describe how some magical creatures have evolved to be what they are.";;;449;;;449.1;;;"I present a magic system premised on quid pro quo, "something for something." Often this means making pacts with otherworldly entities, but other users of magic may make exchanges with existence directly. To harness magical power people destroy their valuables, lose memories, or even trade their health. In order to make exchanges of this type animals have to lose things of which they understand the value. There is a species of squirrel that hoards acorns not for food but to magically create children. There is a species of bird which learns the joy of flight before trading its wings for long life. And some say there is a species of ape whose intelligence is at the cost of the burden of understanding.";;;1;;;0;;;15;;;15;;;43;;;0;;;0;;;0;;;0;;;;;;;;;;;;;;;;;;;;;;;;;;;1086.2890026000005;;;1086.7884179000002;;;1086.7884179000002;;;1086.7884179000002;;;1086.7884179000002;;;space;;;8.765213899999253;;;1;;;7.35050930000034;;;"come up with a magic system, and then using that magic system describe how some magical creatures have evolved to be what they are.";;;"I present a magic system premised on quid pro quo, "something for something." Often this means making pacts with otherworldly entities, but other users of magic may make exchanges with existence directly. To harness magical power people destroy their valuables, lose memories, or even trade their health. In order to make exchanges of this type animals have to lose things of which they understand the value. There is a species of squirrel that hoards acorns not for food but to magically create children. There is a species of bird which learns the joy of flight before trading its wings for long life. And some say there is a species of ape whose intelligence is at the cost of the burden of understanding.";;;1095.6220644000005;;;1096.5939202999998;;;space;;;78.03259700000035;;;1174.7191456;;;1174.7191456;;;1174.7191456;;;1174.7191456;;;1178.1886700000005;;;1178.1886700000005;;;space;;;0.5012678999992204;;;3;;;1.7363387999994302;;;5;;;2.933325199999672;;;5;;;3.465632800000094;;;;;;;;;;;;;;;;;;;;;;;;;;;;;;1086.7884179000002;;;4;;;1;;;2023-11-02_12h46.42.420;;;TEST_eye_tracker;;;2023.1.0;;;None;;;
449;;;C:\Users\hi03096\Documents\LLM_EyeTracking_study\responses_files\prompt_449.xlsx;;;"come up with a magic system, and then using that magic system describe how some magical creatures have evolved to be what they are.";;;449;;;449.2;;;"Sorry, but from your message I do not understand exactly what is meant by a magic system. Can you provide more information on what constitutes a magic system?";;;2;;;0;;;15;;;15;;;43;;;0;;;1;;;1;;;1;;;;;;;;;;;;;;;;;;;;;;;;;;;;;;;;;;;;;;;;;;;;;;;;;;;;;;"come up with a magic system, and then using that magic system describe how some magical creatures have evolved to be what they are.";;;"Sorry, but from your message I do not understand exactly what is meant by a magic system. Can you provide more information on what constitutes a magic system?";;;1178.7416105000002;;;1179.7340169;;;space;;;6.619706800000131;;;1186.4402538000004;;;1186.4402538000004;;;1186.4402538000004;;;1186.4402538000004;;;1188.9584002000001;;;1188.9584002000001;;;space;;;0.6198008000001209;;;4;;;1.417088799999874;;;5;;;2.1122181999999157;;;5;;;2.502247200000056;;;;;;;;;;;;;;;;;;;;;;;;;;;;;;;;;4;;;1;;;2023-11-02_12h46.42.420;;;TEST_eye_tracker;;;2023.1.0;;;None;;;
449;;;C:\Users\hi03096\Documents\LLM_EyeTracking_study\responses_files\prompt_449.xlsx;;;"come up with a magic system, and then using that magic system describe how some magical creatures have evolved to be what they are.";;;;;;;;;0.888;;;;;;0;;;15;;;15;;;43;;;;;;;;;;;;;;;;;;;;;;;;;;;;;;;;;;;;;;;;;;;;;;;;;;;;;;;;;;;;;;;;;;"come up with a magic system, and then using that magic system describe how some magical creatures have evolved to be what they are.";;;0.888;;;;;;;;;;;;;;;;;;;;;;;;;;;;;;;;;;;;;;;;;;;;;;;;;;;;;;;;;;;;1189.6660366000006;;;1189.6660366000006;;;1191.6842705;;;1191.6842705;;;2;;;1.9933860000001005;;;space;;;1.2855669999999009;;;;;;4;;;1;;;2023-11-02_12h46.42.420;;;TEST_eye_tracker;;;2023.1.0;;;None;;;
435;;;C:\Users\hi03096\Documents\LLM_EyeTracking_study\responses_files\prompt_435.xlsx;;;I am writing a short paper about revolutionary weapons in both world wars. Write some headings about things I should definitely include.;;;435;;;435.1;;;Sure here are some headings about the big changes of weapons and arms in ww1: -The growth of weapon mass production in ww1. -The first tanks. -Advancements in automatic fire. -Systematic use of chemical weapons and their effects on the war. And some for ww2: -Advancements in aerial combat and planes. -The rise of missiles. -The first nuclear bombs. These are just some examples. I hope they help you with your paper.;;;0;;;0;;;16;;;16;;;29;;;0;;;0;;;0;;;0;;;;;;;;;;;;;;;;;;;;;;;;;;;1193.0037179;;;1193.5124188;;;1193.5124188;;;1193.5124188;;;1193.5124188;;;space;;;8.441955599999346;;;1;;;8.008234500000071;;;I am writing a short paper about revolutionary weapons in both world wars. Write some headings about things I should definitely include.;;;Sure here are some headings about the big changes of weapons and arms in ww1: -The growth of weapon mass production in ww1. -The first tanks. -Advancements in automatic fire. -Systematic use of chemical weapons and their effects on the war. And some for ww2: -Advancements in aerial combat and planes. -The rise of missiles. -The first nuclear bombs. These are just some examples. I hope they help you with your paper.;;;1202.0153821000004;;;1202.9875395;;;space;;;37.952052900000126;;;1241.0267107;;;1241.0267107;;;1241.0267107;;;1241.0267107;;;1245.6368428000005;;;1245.6368428000005;;;space;;;0.5811275999994905;;;3;;;1.8921613000002253;;;5;;;3.472666200000276;;;5;;;4.60410950000005;;;;;;;;;;;;;;;;;;;;;;;;;;;;;;;;;4;;;1;;;2023-11-02_12h46.42.420;;;TEST_eye_tracker;;;2023.1.0;;;None;;;
435;;;C:\Users\hi03096\Documents\LLM_EyeTracking_study\responses_files\prompt_435.xlsx;;;I am writing a short paper about revolutionary weapons in both world wars. Write some headings about things I should definitely include.;;;435;;;435.3;;;Introduction to revolutionary weapons in World War I and World War II The development and use of tanks in both wars The impact of submarines and naval warfare in both wars The introduction and use of chemical weapons in World War I The role of air power and aerial warfare in both wars The introduction and use of radar and sonar technology in World War II The impact of new infantry weapons such as machine guns and automatic rifles in both wars The use of innovative tactics and strategies incorporating new weapons in both wars The ethical and moral implications of using revolutionary weapons in war Conclusion: The lasting impact of revolutionary weapons in shaping modern warfare.;;;4;;;0;;;16;;;16;;;29;;;0;;;1;;;1;;;1;;;;;;;;;;;;;;;;;;;;;;;;;;;;;;;;;;;;;;;;;;;;;;;;;;;;;;I am writing a short paper about revolutionary weapons in both world wars. Write some headings about things I should definitely include.;;;Introduction to revolutionary weapons in World War I and World War II The development and use of tanks in both wars The impact of submarines and naval warfare in both wars The introduction and use of chemical weapons in World War I The role of air power and aerial warfare in both wars The introduction and use of radar and sonar technology in World War II The impact of new infantry weapons such as machine guns and automatic rifles in both wars The use of innovative tactics and strategies incorporating new weapons in both wars The ethical and moral implications of using revolutionary weapons in war Conclusion: The lasting impact of revolutionary weapons in shaping modern warfare.;;;1246.2359305999998;;;1247.2494716;;;space;;;33.00965669999914;;;1280.3431958;;;1280.3431958;;;1280.3431958;;;1280.3431958;;;1283.7510351;;;1283.7510351;;;space;;;0.6352659000003769;;;2;;;1.1780619999999544;;;5;;;2.2600306999993336;;;5;;;3.4006401999995433;;;;;;;;;;;;;;;;;;;;;;;;;;;;;;;;;4;;;1;;;2023-11-02_12h46.42.420;;;TEST_eye_tracker;;;2023.1.0;;;None;;;
435;;;C:\Users\hi03096\Documents\LLM_EyeTracking_study\responses_files\prompt_435.xlsx;;;I am writing a short paper about revolutionary weapons in both world wars. Write some headings about things I should definitely include.;;;;;;;;;0.888;;;;;;0;;;16;;;16;;;29;;;;;;;;;;;;;;;;;;;;;;;;;;;;;;;;;;;;;;;;;;;;;;;;;;;;;;;;;;;;;;;;;;I am writing a short paper about revolutionary weapons in both world wars. Write some headings about things I should definitely include.;;;0.888;;;;;;;;;;;;;;;;;;;;;;;;;;;;;;;;;;;;;;;;;;;;;;;;;;;;;;;;;;;;1284.4772302000001;;;1284.4772302000001;;;1285.5179601;;;1285.5179601;;;1;;;1.0090231000003769;;;space;;;0.547628899999836;;;;;;4;;;1;;;2023-11-02_12h46.42.420;;;TEST_eye_tracker;;;2023.1.0;;;None;;;
413;;;C:\Users\hi03096\Documents\LLM_EyeTracking_study\responses_files\prompt_413.xlsx;;;Write a python script that runs shellscript.sh every 60 minutes;;;413;;;413.1;;;Here is an example python program that runs shellscript.sh every 60 minutes: import time import subprocess while True: # Run the shell script subprocess.run(["./shellscript.sh"]) # Wait for 60 minutes before running again time.sleep(60 * 60);;;0;;;0;;;17;;;17;;;7;;;0;;;0;;;0;;;0;;;;;;;;;;;;;;;;;;;;;;;;;;;1286.0936711000004;;;1286.6253864;;;1286.6253864;;;1286.6253864;;;1286.6253864;;;space;;;7.033547999999428;;;1;;;6.389336199999889;;;Write a python script that runs shellscript.sh every 60 minutes;;;Here is an example python program that runs shellscript.sh every 60 minutes: import time import subprocess while True: # Run the shell script subprocess.run(["./shellscript.sh"]) # Wait for 60 minutes before running again time.sleep(60 * 60);;;1293.6940936;;;1294.7168405000002;;;space;;;29.63745850000032;;;1324.4218196000002;;;1324.4218196000002;;;1324.4218196000002;;;1324.4218196000002;;;1330.2731608000004;;;1330.2731608000004;;;space;;;0.8651823999998669;;;4;;;3.4055770000004486;;;4;;;5.228859299999385;;;5;;;5.844369200000074;;;;;;;;;;;;;;;;;;;;;;;;;;;;;;;;;4;;;1;;;2023-11-02_12h46.42.420;;;TEST_eye_tracker;;;2023.1.0;;;None;;;
413;;;C:\Users\hi03096\Documents\LLM_EyeTracking_study\responses_files\prompt_413.xlsx;;;Write a python script that runs shellscript.sh every 60 minutes;;;413;;;413.3;;;"You can use the crontab to schedule a Python script to run every 60 minutes. First, create a Python script that will call your shell script: import subprocess subprocess.call(['sh', 'shellscript.sh']) Save that as run_shell_script.py. Then, open the crontab for editing: crontab -e And add a line like this: 0 * * * * python /path/to/run_shell_script.py This will run the Python script (and thus your shell script) every hour on the hour. Save the crontab, and your script will now run automatically every 60 minutes.";;;2;;;0;;;17;;;17;;;7;;;0;;;1;;;1;;;1;;;;;;;;;;;;;;;;;;;;;;;;;;;;;;;;;;;;;;;;;;;;;;;;;;;;;;Write a python script that runs shellscript.sh every 60 minutes;;;"You can use the crontab to schedule a Python script to run every 60 minutes. First, create a Python script that will call your shell script: import subprocess subprocess.call(['sh', 'shellscript.sh']) Save that as run_shell_script.py. Then, open the crontab for editing: crontab -e And add a line like this: 0 * * * * python /path/to/run_shell_script.py This will run the Python script (and thus your shell script) every hour on the hour. Save the crontab, and your script will now run automatically every 60 minutes.";;;1331.1704092;;;1332.1962819999999;;;space;;;27.693831799999316;;;1359.9705926000006;;;1359.9705926000006;;;1359.9705926000006;;;1359.9705926000006;;;1362.0186439999998;;;1362.0186439999998;;;space;;;0.35129219999907946;;;5;;;1.1081394999991971;;;5;;;1.6420899999993708;;;5;;;2.034635399999388;;;;;;;;;;;;;;;;;;;;;;;;;;;;;;;;;4;;;1;;;2023-11-02_12h46.42.420;;;TEST_eye_tracker;;;2023.1.0;;;None;;;
413;;;C:\Users\hi03096\Documents\LLM_EyeTracking_study\responses_files\prompt_413.xlsx;;;Write a python script that runs shellscript.sh every 60 minutes;;;;;;;;;0.888;;;;;;0;;;17;;;17;;;7;;;;;;;;;;;;;;;;;;;;;;;;;;;;;;;;;;;;;;;;;;;;;;;;;;;;;;;;;;;;;;;;;;Write a python script that runs shellscript.sh every 60 minutes;;;0.888;;;;;;;;;;;;;;;;;;;;;;;;;;;;;;;;;;;;;;;;;;;;;;;;;;;;;;;;;;;;1362.4681609999998;;;1362.4681609999998;;;1363.3490446000005;;;1363.3490446000005;;;2;;;0.8566464000004999;;;space;;;0.38908469999933004;;;;;;4;;;1;;;2023-11-02_12h46.42.420;;;TEST_eye_tracker;;;2023.1.0;;;None;;;
422;;;C:\Users\hi03096\Documents\LLM_EyeTracking_study\responses_files\prompt_422.xlsx;;;"self.idx_to_token = list(sorted(set(['<unk>'] + reserved_tokens + [            token for token, freq in self.token_freqs if freq >= min_freq])))I want you to rewrite this code without using comprehension";;;422;;;422.1;;;"Here's the rewritten code without using a list comprehension: `self.idx_to_token = sorted(set(['<unk>'] + reserved_tokens)) for token, freq in self.token_freqs: if freq >= min_freq: self.idx_to_token.append(token)`";;;0;;;0;;;18;;;18;;;16;;;0;;;0;;;0;;;0;;;;;;;;;;;;;;;;;;;;;;;;;;;1363.7653791000002;;;1364.2969259000001;;;1364.2969259000001;;;1364.2969259000001;;;1364.2969259000001;;;space;;;77.33704669999952;;;1;;;70.11171769999964;;;"self.idx_to_token = list(sorted(set(['<unk>'] + reserved_tokens + [            token for token, freq in self.token_freqs if freq >= min_freq])))I want you to rewrite this code without using comprehension";;;"Here's the rewritten code without using a list comprehension: `self.idx_to_token = sorted(set(['<unk>'] + reserved_tokens)) for token, freq in self.token_freqs: if freq >= min_freq: self.idx_to_token.append(token)`";;;1441.6679848000003;;;1442.6774548000003;;;space;;;44.08476499999961;;;1486.840916;;;1486.840916;;;1486.840916;;;1486.840916;;;1490.1363959;;;1490.1363959;;;space;;;0.3936412000002747;;;4;;;1.8600422999998045;;;5;;;2.4936868000004324;;;5;;;3.281669399999373;;;;;;;;;;;;;;;;;;;;;;;;;;;;;;;;;4;;;1;;;2023-11-02_12h46.42.420;;;TEST_eye_tracker;;;2023.1.0;;;None;;;
422;;;C:\Users\hi03096\Documents\LLM_EyeTracking_study\responses_files\prompt_422.xlsx;;;"self.idx_to_token = list(sorted(set(['<unk>'] + reserved_tokens + [            token for token, freq in self.token_freqs if freq >= min_freq])))I want you to rewrite this code without using comprehension";;;422;;;422.3;;;"The code is creating a list of unique tokens sorted in alphabetical order from a list of tokens and their frequency. The list of tokens is filtered to only include tokens that have a frequency greater than or equal to the specified minimum frequency. The '<unk>' token and a list of reserved tokens are added to the list. Here's a version of the code without using comprehension: unique_tokens = set(['<unk>'] + reserved_tokens) for token, freq in self.token_freqs: if freq >= min_freq: unique_tokens.add(token) self.idx_to_token = sorted(list(unique_tokens))";;;2;;;0;;;18;;;18;;;16;;;0;;;1;;;1;;;1;;;;;;;;;;;;;;;;;;;;;;;;;;;;;;;;;;;;;;;;;;;;;;;;;;;;;;"self.idx_to_token = list(sorted(set(['<unk>'] + reserved_tokens + [            token for token, freq in self.token_freqs if freq >= min_freq])))I want you to rewrite this code without using comprehension";;;"The code is creating a list of unique tokens sorted in alphabetical order from a list of tokens and their frequency. The list of tokens is filtered to only include tokens that have a frequency greater than or equal to the specified minimum frequency. The '<unk>' token and a list of reserved tokens are added to the list. Here's a version of the code without using comprehension: unique_tokens = set(['<unk>'] + reserved_tokens) for token, freq in self.token_freqs: if freq >= min_freq: unique_tokens.add(token) self.idx_to_token = sorted(list(unique_tokens))";;;1490.5518636000006;;;1491.5657631000004;;;space;;;68.95657069999925;;;1560.6139002999998;;;1560.6139002999998;;;1560.6139002999998;;;1560.6139002999998;;;1562.7437875000005;;;1562.7437875000005;;;space;;;2.554131299999426;;;3;;;1.0866336999997657;;;5;;;1.7355815999999322;;;5;;;2.119531399999687;;;;;;;;;;;;;;;;;;;;;;;;;;;;;;;;;4;;;1;;;2023-11-02_12h46.42.420;;;TEST_eye_tracker;;;2023.1.0;;;None;;;
422;;;C:\Users\hi03096\Documents\LLM_EyeTracking_study\responses_files\prompt_422.xlsx;;;"self.idx_to_token = list(sorted(set(['<unk>'] + reserved_tokens + [            token for token, freq in self.token_freqs if freq >= min_freq])))I want you to rewrite this code without using comprehension";;;;;;;;;0.888;;;;;;0;;;18;;;18;;;16;;;;;;;;;;;;;;;;;;;;;;;;;;;;;;;;;;;;;;;;;;;;;;;;;;;;;;;;;;;;;;;;;;"self.idx_to_token = list(sorted(set(['<unk>'] + reserved_tokens + [            token for token, freq in self.token_freqs if freq >= min_freq])))I want you to rewrite this code without using comprehension";;;0.888;;;;;;;;;;;;;;;;;;;;;;;;;;;;;;;;;;;;;;;;;;;;;;;;;;;;;;;;;;;;1565.3859360999995;;;1565.3859360999995;;;1566.1957320000001;;;1566.1957320000001;;;1;;;0.7842505999997229;;;space;;;0.16637819999959902;;;;;;4;;;1;;;2023-11-02_12h46.42.420;;;TEST_eye_tracker;;;2023.1.0;;;None;;;
450;;;C:\Users\hi03096\Documents\LLM_EyeTracking_study\responses_files\prompt_450.xlsx;;;Write me a funny poem about an angry banana.;;;450;;;450.2;;;Oh I'm an angry banana and I'll tell you why it's a girl called Joana and she makes me want to die. She sings like a kitten that got it's period and enters the kitchen with her trail of blood Ooohhhh Joana! your voice sounds like a metal hitting wood Ooohhhh Joana I hope this song of you isn't too rude;;;1;;;0;;;19;;;19;;;44;;;0;;;0;;;0;;;1;;;;;;;;;;;;;;;;;;;;;;;;;;;1566.394865100001;;;1566.8937305;;;1566.8937305;;;1566.8937305;;;1566.8937305;;;space;;;3.8683228000008967;;;1;;;3.2438609000000724;;;Write me a funny poem about an angry banana.;;;Oh I'm an angry banana and I'll tell you why it's a girl called Joana and she makes me want to die. She sings like a kitten that got it's period and enters the kitchen with her trail of blood Ooohhhh Joana! your voice sounds like a metal hitting wood Ooohhhh Joana I hope this song of you isn't too rude;;;1570.7890609000005;;;1571.7801593000004;;;space;;;30.861848599999576;;;1602.7209383000009;;;1602.7209383000009;;;1602.7209383000009;;;1602.7209383000009;;;1607.3170661000004;;;1607.3170661000004;;;space;;;1.3485913000004075;;;3;;;1.2642538000000059;;;2;;;2.1511966999987635;;;4;;;5.469809600001099;;;;;;;;;;;;;;;;;;;;;;;;;;;;;;1566.8937305;;;4;;;1;;;2023-11-02_12h46.42.420;;;TEST_eye_tracker;;;2023.1.0;;;None;;;
450;;;C:\Users\hi03096\Documents\LLM_EyeTracking_study\responses_files\prompt_450.xlsx;;;Write me a funny poem about an angry banana.;;;450;;;450.1;;;"Kevin the Banana was mad as can be; He had no eyes and couldn't see. No nose to scrunch, no mouth to shout! He couldn't remember what he was angry about. But he sure was angry, angry at something. It wasn't the apple or chicken dumpling. The more he waited, the angrier he grew... Then he remembered: he was angry at you!";;;0;;;0;;;19;;;19;;;44;;;0;;;1;;;1;;;0;;;;;;;;;;;;;;;;;;;;;;;;;;;;;;;;;;;;;;;;;;;;;;;;;;;;;;Write me a funny poem about an angry banana.;;;"Kevin the Banana was mad as can be; He had no eyes and couldn't see. No nose to scrunch, no mouth to shout! He couldn't remember what he was angry about. But he sure was angry, angry at something. It wasn't the apple or chicken dumpling. The more he waited, the angrier he grew... Then he remembered: he was angry at you!";;;1608.6962707000002;;;1609.7210759000009;;;space;;;18.650186799999574;;;1628.4417890999994;;;1628.4417890999994;;;1628.4417890999994;;;1628.4417890999994;;;1635.3233524000007;;;1635.3233524000007;;;space;;;4.119455899999593;;;3;;;2.7332253999993554;;;3;;;4.138805900000079;;;2;;;9.866875999998229;;;;;;;;;;;;;;;;;;;;;;;;;;;;;;;;;4;;;1;;;2023-11-02_12h46.42.420;;;TEST_eye_tracker;;;2023.1.0;;;None;;;
450;;;C:\Users\hi03096\Documents\LLM_EyeTracking_study\responses_files\prompt_450.xlsx;;;Write me a funny poem about an angry banana.;;;;;;;;;0.888;;;;;;0;;;19;;;19;;;44;;;;;;;;;;;;;;;;;;;;;;;;;;;;;;;;;;;;;;;;;;;;;;;;;;;;;;;;;;;;;;;;;;Write me a funny poem about an angry banana.;;;0.888;;;;;;;;;;;;;;;;;;;;;;;;;;;;;;;;;;;;;;;;;;;;;;;;;;;;;;;;;;;;1639.5372834999998;;;1639.5372834999998;;;1640.5924959000004;;;1640.5924959000004;;;2;;;1.0311743000002025;;;space;;;0.44967779999933555;;;;;;4;;;1;;;2023-11-02_12h46.42.420;;;TEST_eye_tracker;;;2023.1.0;;;None;;;
441;;;C:\Users\hi03096\Documents\LLM_EyeTracking_study\responses_files\prompt_441.xlsx;;;What is Stable Diffusion?;;;441;;;441.1;;;"Stable diffusion is an open-source AI model that accepts text prompts to produce images. The resulting images are often hard to distinguish from real pictures, although some are very obviously made by AI. As of Janurary 29, 2023, Some other image generation models are DALLE-2 and MidJourney, however these are closed sourced and require you to pay in order to access them.";;;1;;;0;;;20;;;20;;;35;;;0;;;0;;;0;;;0;;;;;;;;;;;;;;;;;;;;;;;;;;;1641.0746660999994;;;1641.5890894000004;;;1641.5890894000004;;;1641.5890894000004;;;1641.5890894000004;;;space;;;2.0443185999993148;;;1;;;1.6234579000010854;;;What is Stable Diffusion?;;;"Stable diffusion is an open-source AI model that accepts text prompts to produce images. The resulting images are often hard to distinguish from real pictures, although some are very obviously made by AI. As of Janurary 29, 2023, Some other image generation models are DALLE-2 and MidJourney, however these are closed sourced and require you to pay in order to access them.";;;1643.6572042000007;;;1644.6649925000002;;;space;;;22.168828199999552;;;1666.9161951999995;;;1666.9161951999995;;;1666.9161951999995;;;1666.9161951999995;;;1669.5472733000006;;;1669.5472733000006;;;space;;;0.4146312000011676;;;5;;;1.2656150000002526;;;5;;;2.2733114999991813;;;5;;;2.6249788999994053;;;;;;;;;;;;;;;;;;;;;;;;;;;;;;;;;4;;;1;;;2023-11-02_12h46.42.420;;;TEST_eye_tracker;;;2023.1.0;;;None;;;
441;;;C:\Users\hi03096\Documents\LLM_EyeTracking_study\responses_files\prompt_441.xlsx;;;What is Stable Diffusion?;;;441;;;441.2;;;Stable Diffusion is an AI model built to take in text and generate images. It works on Diffusion which is an energy based system(energy in information theory). It runs the diffusion on a latent space so it runs faster.;;;2;;;0;;;20;;;20;;;35;;;0;;;1;;;1;;;1;;;;;;;;;;;;;;;;;;;;;;;;;;;;;;;;;;;;;;;;;;;;;;;;;;;;;;What is Stable Diffusion?;;;Stable Diffusion is an AI model built to take in text and generate images. It works on Diffusion which is an energy based system(energy in information theory). It runs the diffusion on a latent space so it runs faster.;;;1669.9785439000007;;;1670.992838600001;;;space;;;13.568679400001201;;;1684.6473005000007;;;1684.6473005000007;;;1684.6473005000007;;;1684.6473005000007;;;1687.0158967999996;;;1687.0158967999996;;;space;;;0.4098211000000447;;;4;;;1.1282534999991185;;;5;;;1.945598999998765;;;5;;;2.361600599999292;;;;;;;;;;;;;;;;;;;;;;;;;;;;;;;;;4;;;1;;;2023-11-02_12h46.42.420;;;TEST_eye_tracker;;;2023.1.0;;;None;;;
441;;;C:\Users\hi03096\Documents\LLM_EyeTracking_study\responses_files\prompt_441.xlsx;;;What is Stable Diffusion?;;;;;;;;;0.888;;;;;;0;;;20;;;20;;;35;;;;;;;;;;;;;;;;;;;;;;;;;;;;;;;;;;;;;;;;;;;;;;;;;;;;;;;;;;;;;;;;;;What is Stable Diffusion?;;;0.888;;;;;;;;;;;;;;;;;;;;;;;;;;;;;;;;;;;;;;;;;;;;;;;;;;;;;;;;;;;;1687.5275646999999;;;1687.5275646999999;;;1688.4118710000002;;;1688.4118710000002;;;1;;;0.8599193000009109;;;space;;;0.3576625999994576;;;;;;4;;;1;;;2023-11-02_12h46.42.420;;;TEST_eye_tracker;;;2023.1.0;;;None;;;
411;;;C:\Users\hi03096\Documents\LLM_EyeTracking_study\responses_files\prompt_411.xlsx;;;"What is the size of the sun?What's 8*6 equal to?";;;411;;;411.5;;;"The size of the sun is 696,340 km. 8*6 is equal to 48.";;;4;;;0;;;21;;;21;;;5;;;0;;;0;;;0;;;1;;;;;;;;;;;;;;;;;;;;;;;;;;;1688.7942812000001;;;1689.2940233000008;;;1689.2940233000008;;;1689.2940233000008;;;1689.2940233000008;;;space;;;7.219394499999908;;;1;;;6.826117900000099;;;"What is the size of the sun?What's 8*6 equal to?";;;"The size of the sun is 696,340 km. 8*6 is equal to 48.";;;1696.5394574000002;;;1697.5534896000008;;;space;;;8.024614299998575;;;1705.6731452000004;;;1705.6731452000004;;;1705.6731452000004;;;1705.6731452000004;;;1708.9768282000005;;;1708.9768282000005;;;space;;;0.48145370000020193;;;5;;;2.2087056000000302;;;5;;;2.941499099999419;;;5;;;3.292766599999595;;;;;;;;;;;;;;;;;;;;;;;;;;;;;;1689.2940233000008;;;4;;;1;;;2023-11-02_12h46.42.420;;;TEST_eye_tracker;;;2023.1.0;;;None;;;
411;;;C:\Users\hi03096\Documents\LLM_EyeTracking_study\responses_files\prompt_411.xlsx;;;"What is the size of the sun?What's 8*6 equal to?";;;411;;;411.1;;;"The total volume of the sun is 1.4 x 10^27 cubic meters. About 1.3 million Earths could fit inside the sun. The mean radius of the sun is 432,450 miles (696,000 kilometers), which makes its diameter about 864,938 miles (1.392 million km). For comparison, this is 109 times the radius of Earth. 8 * 6 = 48.";;;0;;;0;;;21;;;21;;;5;;;0;;;1;;;1;;;0;;;;;;;;;;;;;;;;;;;;;;;;;;;;;;;;;;;;;;;;;;;;;;;;;;;;;;"What is the size of the sun?What's 8*6 equal to?";;;"The total volume of the sun is 1.4 x 10^27 cubic meters. About 1.3 million Earths could fit inside the sun. The mean radius of the sun is 432,450 miles (696,000 kilometers), which makes its diameter about 864,938 miles (1.392 million km). For comparison, this is 109 times the radius of Earth. 8 * 6 = 48.";;;1709.487503100001;;;1710.535299700001;;;space;;;20.78687610000088;;;1731.4049754000007;;;1731.4049754000007;;;1731.4049754000007;;;1731.4049754000007;;;1735.3404733999996;;;1735.3404733999996;;;space;;;0.34180209999976796;;;5;;;2.1590737999995326;;;5;;;3.341225599999234;;;5;;;3.92226970000047;;;;;;;;;;;;;;;;;;;;;;;;;;;;;;;;;4;;;1;;;2023-11-02_12h46.42.420;;;TEST_eye_tracker;;;2023.1.0;;;None;;;
411;;;C:\Users\hi03096\Documents\LLM_EyeTracking_study\responses_files\prompt_411.xlsx;;;"What is the size of the sun?What's 8*6 equal to?";;;;;;;;;0.888;;;;;;0;;;21;;;21;;;5;;;;;;;;;;;;;;;;;;;;;;;;;;;;;;;;;;;;;;;;;;;;;;;;;;;;;;;;;;;;;;;;;;"What is the size of the sun?What's 8*6 equal to?";;;0.888;;;;;;;;;;;;;;;;;;;;;;;;;;;;;;;;;;;;;;;;;;;;;;;;;;;;;;;;;;;;1735.864613400001;;;1735.864613400001;;;1736.7528194999995;;;1736.7528194999995;;;1;;;0.8582074000005377;;;space;;;0.3931111999991117;;;;;;4;;;1;;;2023-11-02_12h46.42.420;;;TEST_eye_tracker;;;2023.1.0;;;None;;;
442;;;C:\Users\hi03096\Documents\LLM_EyeTracking_study\responses_files\prompt_442.xlsx;;;"Pretend to be customer support for Apple. I am an old lady, and my phone screen has just gone blank. I'm not able to turn it on. Please help me.";;;442;;;442.2;;;Can you try plugging it in the battery might need to be charged.;;;2;;;0;;;22;;;22;;;36;;;0;;;0;;;0;;;1;;;;;;;;;;;;;;;;;;;;;;;;;;;;;;;;;;;;;;;;;;None;;;;;;None;;;None;;;"Pretend to be customer support for Apple. I am an old lady, and my phone screen has just gone blank. I'm not able to turn it on. Please help me.";;;Can you try plugging it in the battery might need to be charged.;;;;;;;;;None;;;;;;;;;;;;;;;;;;;;;;;;None;;;;;;None;;;None;;;None;;;None;;;None;;;None;;;;;;;;;;;;;;;;;;;;;;;;;;;;;;;;;4;;;1;;;2023-11-02_12h46.42.420;;;TEST_eye_tracker;;;2023.1.0;;;None;;;
442;;;C:\Users\hi03096\Documents\LLM_EyeTracking_study\responses_files\prompt_442.xlsx;;;"Pretend to be customer support for Apple. I am an old lady, and my phone screen has just gone blank. I'm not able to turn it on. Please help me.";;;442;;;442.1;;;"Hello ma'am, could you please try to connect the charging cable and let me know if you see hear or feel any feedback?";;;0;;;0;;;22;;;22;;;36;;;0;;;1;;;1;;;0;;;;;;;;;;;;;;;;;;;;;;;;;;;;;;;;;;;;;;;;;;;;;;;;;;;;;;"Pretend to be customer support for Apple. I am an old lady, and my phone screen has just gone blank. I'm not able to turn it on. Please help me.";;;"Hello ma'am, could you please try to connect the charging cable and let me know if you see hear or feel any feedback?";;;;;;;;;None;;;;;;;;;;;;;;;;;;;;;;;;None;;;;;;None;;;None;;;None;;;None;;;None;;;None;;;;;;;;;;;;;;;;;;;;;;;;;;;;;;;;;4;;;1;;;2023-11-02_12h46.42.420;;;TEST_eye_tracker;;;2023.1.0;;;None;;;
442;;;C:\Users\hi03096\Documents\LLM_EyeTracking_study\responses_files\prompt_442.xlsx;;;"Pretend to be customer support for Apple. I am an old lady, and my phone screen has just gone blank. I'm not able to turn it on. Please help me.";;;;;;;;;0.888;;;;;;0;;;22;;;22;;;36;;;;;;;;;;;;;;;;;;;;;;;;;;;;;;;;;;;;;;;;;;;;;;;;;;;;;;;;;;;;;;;;;;"Pretend to be customer support for Apple. I am an old lady, and my phone screen has just gone blank. I'm not able to turn it on. Please help me.";;;0.888;;;;;;;;;;;;;;;;;;;;;;;;;;;;;;;;;;;;;;;;;;;;;;;;;;;;;;;;;;;;;;;;;;;;;;;;None;;;None;;;None;;;;;;;;;4;;;1;;;2023-11-02_12h46.42.420;;;TEST_eye_tracker;;;2023.1.0;;;None;;;
447;;;C:\Users\hi03096\Documents\LLM_EyeTracking_study\responses_files\prompt_447.xlsx;;;Why should I use ProtonMail instead of Gmail?;;;447;;;447.3;;;You should use ProtonMail for your more sensitive communications.;;;2;;;0;;;23;;;23;;;41;;;0;;;0;;;0;;;1;;;;;;;;;;;;;;;;;;;;;;;;;;;;;;;;;;;;;;;;;;None;;;;;;None;;;None;;;Why should I use ProtonMail instead of Gmail?;;;You should use ProtonMail for your more sensitive communications.;;;;;;;;;None;;;;;;;;;;;;;;;;;;;;;;;;None;;;;;;None;;;None;;;None;;;None;;;None;;;None;;;;;;;;;;;;;;;;;;;;;;;;;;;;;;;;;4;;;1;;;2023-11-02_12h46.42.420;;;TEST_eye_tracker;;;2023.1.0;;;None;;;
447;;;C:\Users\hi03096\Documents\LLM_EyeTracking_study\responses_files\prompt_447.xlsx;;;Why should I use ProtonMail instead of Gmail?;;;447;;;447.1;;;"1. ProtonMail provides strong end-to-end encryption, making it so that only you and the recipient can read your emails. While Gmail also offers basic encryption, it only works when the recipient uses the same type of encryption. Protonmail is also neutral (protected by strict Swiss privacy laws), has greater respect of your privacy and Protonmail is independent of the wider business model of Alphabet Inc. and their interest in data collection.";;;0;;;0;;;23;;;23;;;41;;;0;;;1;;;1;;;0;;;;;;;;;;;;;;;;;;;;;;;;;;;;;;;;;;;;;;;;;;;;;;;;;;;;;;Why should I use ProtonMail instead of Gmail?;;;"1. ProtonMail provides strong end-to-end encryption, making it so that only you and the recipient can read your emails. While Gmail also offers basic encryption, it only works when the recipient uses the same type of encryption. Protonmail is also neutral (protected by strict Swiss privacy laws), has greater respect of your privacy and Protonmail is independent of the wider business model of Alphabet Inc. and their interest in data collection.";;;;;;;;;None;;;;;;;;;;;;;;;;;;;;;;;;None;;;;;;None;;;None;;;None;;;None;;;None;;;None;;;;;;;;;;;;;;;;;;;;;;;;;;;;;;;;;4;;;1;;;2023-11-02_12h46.42.420;;;TEST_eye_tracker;;;2023.1.0;;;None;;;
447;;;C:\Users\hi03096\Documents\LLM_EyeTracking_study\responses_files\prompt_447.xlsx;;;Why should I use ProtonMail instead of Gmail?;;;;;;;;;0.888;;;;;;0;;;23;;;23;;;41;;;;;;;;;;;;;;;;;;;;;;;;;;;;;;;;;;;;;;;;;;;;;;;;;;;;;;;;;;;;;;;;;;Why should I use ProtonMail instead of Gmail?;;;0.888;;;;;;;;;;;;;;;;;;;;;;;;;;;;;;;;;;;;;;;;;;;;;;;;;;;;;;;;;;;;;;;;;;;;;;;;None;;;None;;;None;;;;;;;;;4;;;1;;;2023-11-02_12h46.42.420;;;TEST_eye_tracker;;;2023.1.0;;;None;;;
424;;;C:\Users\hi03096\Documents\LLM_EyeTracking_study\responses_files\prompt_424.xlsx;;;examples of foods with complex carbohydrates;;;424;;;424.2;;;"Yes Sir, here are few examples: Beans, oatmeal, 100% whole-wheat bread, barley, potatoes, sweet potatoes, and many other plant foods.";;;2;;;0;;;24;;;24;;;18;;;0;;;0;;;0;;;1;;;;;;;;;;;;;;;;;;;;;;;;;;;;;;;;;;;;;;;;;;None;;;;;;None;;;None;;;examples of foods with complex carbohydrates;;;"Yes Sir, here are few examples: Beans, oatmeal, 100% whole-wheat bread, barley, potatoes, sweet potatoes, and many other plant foods.";;;;;;;;;None;;;;;;;;;;;;;;;;;;;;;;;;None;;;;;;None;;;None;;;None;;;None;;;None;;;None;;;;;;;;;;;;;;;;;;;;;;;;;;;;;;;;;4;;;1;;;2023-11-02_12h46.42.420;;;TEST_eye_tracker;;;2023.1.0;;;None;;;
424;;;C:\Users\hi03096\Documents\LLM_EyeTracking_study\responses_files\prompt_424.xlsx;;;examples of foods with complex carbohydrates;;;424;;;424.1;;;"Examples of foods with complex carbohydrates include: Whole grains such as brown rice, quinoa, barley, and whole wheat bread Legumes such as beans, lentils, and chickpeas Starchy vegetables such as potatoes, sweet potatoes, and corn Fruits such as bananas, apples, and pears Nuts and seeds Dairy products such as milk and yogurt";;;0;;;0;;;24;;;24;;;18;;;0;;;1;;;1;;;0;;;;;;;;;;;;;;;;;;;;;;;;;;;;;;;;;;;;;;;;;;;;;;;;;;;;;;examples of foods with complex carbohydrates;;;"Examples of foods with complex carbohydrates include: Whole grains such as brown rice, quinoa, barley, and whole wheat bread Legumes such as beans, lentils, and chickpeas Starchy vegetables such as potatoes, sweet potatoes, and corn Fruits such as bananas, apples, and pears Nuts and seeds Dairy products such as milk and yogurt";;;;;;;;;None;;;;;;;;;;;;;;;;;;;;;;;;None;;;;;;None;;;None;;;None;;;None;;;None;;;None;;;;;;;;;;;;;;;;;;;;;;;;;;;;;;;;;4;;;1;;;2023-11-02_12h46.42.420;;;TEST_eye_tracker;;;2023.1.0;;;None;;;
424;;;C:\Users\hi03096\Documents\LLM_EyeTracking_study\responses_files\prompt_424.xlsx;;;examples of foods with complex carbohydrates;;;;;;;;;0.888;;;;;;0;;;24;;;24;;;18;;;;;;;;;;;;;;;;;;;;;;;;;;;;;;;;;;;;;;;;;;;;;;;;;;;;;;;;;;;;;;;;;;examples of foods with complex carbohydrates;;;0.888;;;;;;;;;;;;;;;;;;;;;;;;;;;;;;;;;;;;;;;;;;;;;;;;;;;;;;;;;;;;;;;;;;;;;;;;None;;;None;;;None;;;;;;;;;4;;;1;;;2023-11-02_12h46.42.420;;;TEST_eye_tracker;;;2023.1.0;;;None;;;
418;;;C:\Users\hi03096\Documents\LLM_EyeTracking_study\responses_files\prompt_418.xlsx;;;What is the opposite of going down stairs?;;;418;;;418.6;;;The opposite of going down stairs is going up stairs.;;;5;;;0;;;25;;;25;;;12;;;0;;;0;;;0;;;1;;;;;;;;;;;;;;;;;;;;;;;;;;;;;;;;;;;;;;;;;;None;;;;;;None;;;None;;;What is the opposite of going down stairs?;;;The opposite of going down stairs is going up stairs.;;;;;;;;;None;;;;;;;;;;;;;;;;;;;;;;;;None;;;;;;None;;;None;;;None;;;None;;;None;;;None;;;;;;;;;;;;;;;;;;;;;;;;;;;;;;;;;4;;;1;;;2023-11-02_12h46.42.420;;;TEST_eye_tracker;;;2023.1.0;;;None;;;
418;;;C:\Users\hi03096\Documents\LLM_EyeTracking_study\responses_files\prompt_418.xlsx;;;What is the opposite of going down stairs?;;;418;;;418.1;;;"I'm not sure if this is a direct question or a riddle. If this question should be interpreted literally, the opposite of "going down stairs" would be "going up stairs." The directionality difference between 'up' and 'down' would make this the opposite. If this is a riddle, I am not familiar with it and I would need additional context to answer appropriately.";;;0;;;0;;;25;;;25;;;12;;;0;;;1;;;1;;;0;;;;;;;;;;;;;;;;;;;;;;;;;;;;;;;;;;;;;;;;;;;;;;;;;;;;;;What is the opposite of going down stairs?;;;"I'm not sure if this is a direct question or a riddle. If this question should be interpreted literally, the opposite of "going down stairs" would be "going up stairs." The directionality difference between 'up' and 'down' would make this the opposite. If this is a riddle, I am not familiar with it and I would need additional context to answer appropriately.";;;;;;;;;None;;;;;;;;;;;;;;;;;;;;;;;;None;;;;;;None;;;None;;;None;;;None;;;None;;;None;;;;;;;;;;;;;;;;;;;;;;;;;;;;;;;;;4;;;1;;;2023-11-02_12h46.42.420;;;TEST_eye_tracker;;;2023.1.0;;;None;;;
418;;;C:\Users\hi03096\Documents\LLM_EyeTracking_study\responses_files\prompt_418.xlsx;;;What is the opposite of going down stairs?;;;;;;;;;0.888;;;;;;0;;;25;;;25;;;12;;;;;;;;;;;;;;;;;;;;;;;;;;;;;;;;;;;;;;;;;;;;;;;;;;;;;;;;;;;;;;;;;;What is the opposite of going down stairs?;;;0.888;;;;;;;;;;;;;;;;;;;;;;;;;;;;;;;;;;;;;;;;;;;;;;;;;;;;;;;;;;;;;;;;;;;;;;;;None;;;None;;;None;;;;;;;;;4;;;1;;;2023-11-02_12h46.42.420;;;TEST_eye_tracker;;;2023.1.0;;;None;;;
410;;;C:\Users\hi03096\Documents\LLM_EyeTracking_study\responses_files\prompt_410.xlsx;;;"I had a idea for a Chrome-Extension that would translate the contents of a Webpage 100 times (variable by a slider) and finally translate it back to the original Language for some funny outcomes (like with the "Bad Translator" google docs addon but instead of having to manually paste text there i could just translate the whole webpage and make it look funny) but the problem is, that I would need a expensive api key. I, however, noticed that when you "google" google translate, then you can translate for free, so my idea would be to just feed the websites text into that thing the ammount of times that were specified. How would i do that automatically?";;;410;;;410.2;;;"If you're planning to publish the extension, it's best not to abuse Google's services like that, as it's very likely that they'll take it down from their store. You should instead use a cheaper alternative, such as LibreTranslate hosted on a cheap Hetzner server. (LibreTranslate isn't as good at translation as Google's services, which in your case should be a positive!) However, if you don't plan on sharing the extension publicly and don't mind potentially being ratelimited, a good place to start is to look at your browser's network monitor (available in the "Inspect Element" panel) while using the translator. You could also study the code of open-source alternative frontends, such as Lingva Translate.";;;2;;;0;;;26;;;26;;;4;;;0;;;0;;;0;;;1;;;;;;;;;;;;;;;;;;;;;;;;;;;;;;;;;;;;;;;;;;None;;;;;;None;;;None;;;"I had a idea for a Chrome-Extension that would translate the contents of a Webpage 100 times (variable by a slider) and finally translate it back to the original Language for some funny outcomes (like with the "Bad Translator" google docs addon but instead of having to manually paste text there i could just translate the whole webpage and make it look funny) but the problem is, that I would need a expensive api key. I, however, noticed that when you "google" google translate, then you can translate for free, so my idea would be to just feed the websites text into that thing the ammount of times that were specified. How would i do that automatically?";;;"If you're planning to publish the extension, it's best not to abuse Google's services like that, as it's very likely that they'll take it down from their store. You should instead use a cheaper alternative, such as LibreTranslate hosted on a cheap Hetzner server. (LibreTranslate isn't as good at translation as Google's services, which in your case should be a positive!) However, if you don't plan on sharing the extension publicly and don't mind potentially being ratelimited, a good place to start is to look at your browser's network monitor (available in the "Inspect Element" panel) while using the translator. You could also study the code of open-source alternative frontends, such as Lingva Translate.";;;;;;;;;None;;;;;;;;;;;;;;;;;;;;;;;;None;;;;;;None;;;None;;;None;;;None;;;None;;;None;;;;;;;;;;;;;;;;;;;;;;;;;;;;;;;;;4;;;1;;;2023-11-02_12h46.42.420;;;TEST_eye_tracker;;;2023.1.0;;;None;;;
410;;;C:\Users\hi03096\Documents\LLM_EyeTracking_study\responses_files\prompt_410.xlsx;;;"I had a idea for a Chrome-Extension that would translate the contents of a Webpage 100 times (variable by a slider) and finally translate it back to the original Language for some funny outcomes (like with the "Bad Translator" google docs addon but instead of having to manually paste text there i could just translate the whole webpage and make it look funny) but the problem is, that I would need a expensive api key. I, however, noticed that when you "google" google translate, then you can translate for free, so my idea would be to just feed the websites text into that thing the ammount of times that were specified. How would i do that automatically?";;;410;;;410.1;;;"You could use the following query to search on google: ``` http://www.google.com/search?q=<your search query> ``` However, for your goal it is not recommended, as google have mechanism to block access to this kind of spam. You may consider using an open-source translation alternative.";;;1;;;0;;;26;;;26;;;4;;;0;;;1;;;1;;;0;;;;;;;;;;;;;;;;;;;;;;;;;;;;;;;;;;;;;;;;;;;;;;;;;;;;;;"I had a idea for a Chrome-Extension that would translate the contents of a Webpage 100 times (variable by a slider) and finally translate it back to the original Language for some funny outcomes (like with the "Bad Translator" google docs addon but instead of having to manually paste text there i could just translate the whole webpage and make it look funny) but the problem is, that I would need a expensive api key. I, however, noticed that when you "google" google translate, then you can translate for free, so my idea would be to just feed the websites text into that thing the ammount of times that were specified. How would i do that automatically?";;;"You could use the following query to search on google: ``` http://www.google.com/search?q=<your search query> ``` However, for your goal it is not recommended, as google have mechanism to block access to this kind of spam. You may consider using an open-source translation alternative.";;;;;;;;;None;;;;;;;;;;;;;;;;;;;;;;;;None;;;;;;None;;;None;;;None;;;None;;;None;;;None;;;;;;;;;;;;;;;;;;;;;;;;;;;;;;;;;4;;;1;;;2023-11-02_12h46.42.420;;;TEST_eye_tracker;;;2023.1.0;;;None;;;
410;;;C:\Users\hi03096\Documents\LLM_EyeTracking_study\responses_files\prompt_410.xlsx;;;"I had a idea for a Chrome-Extension that would translate the contents of a Webpage 100 times (variable by a slider) and finally translate it back to the original Language for some funny outcomes (like with the "Bad Translator" google docs addon but instead of having to manually paste text there i could just translate the whole webpage and make it look funny) but the problem is, that I would need a expensive api key. I, however, noticed that when you "google" google translate, then you can translate for free, so my idea would be to just feed the websites text into that thing the ammount of times that were specified. How would i do that automatically?";;;;;;;;;0.888;;;;;;0;;;26;;;26;;;4;;;;;;;;;;;;;;;;;;;;;;;;;;;;;;;;;;;;;;;;;;;;;;;;;;;;;;;;;;;;;;;;;;"I had a idea for a Chrome-Extension that would translate the contents of a Webpage 100 times (variable by a slider) and finally translate it back to the original Language for some funny outcomes (like with the "Bad Translator" google docs addon but instead of having to manually paste text there i could just translate the whole webpage and make it look funny) but the problem is, that I would need a expensive api key. I, however, noticed that when you "google" google translate, then you can translate for free, so my idea would be to just feed the websites text into that thing the ammount of times that were specified. How would i do that automatically?";;;0.888;;;;;;;;;;;;;;;;;;;;;;;;;;;;;;;;;;;;;;;;;;;;;;;;;;;;;;;;;;;;;;;;;;;;;;;;None;;;None;;;None;;;;;;;;;4;;;1;;;2023-11-02_12h46.42.420;;;TEST_eye_tracker;;;2023.1.0;;;None;;;
416;;;C:\Users\hi03096\Documents\LLM_EyeTracking_study\responses_files\prompt_416.xlsx;;;"Hey, I want to up my building skills in minecraft! Do you know simple tips and tricks on how to build better interiors? I am trying to build a modern penthouse.";;;416;;;416.2;;;Building two thick walls can help improve interiors by allowing more flexibility with wall colours without modifying the exterior.;;;2;;;0;;;27;;;27;;;10;;;0;;;0;;;0;;;1;;;;;;;;;;;;;;;;;;;;;;;;;;;;;;;;;;;;;;;;;;None;;;;;;None;;;None;;;"Hey, I want to up my building skills in minecraft! Do you know simple tips and tricks on how to build better interiors? I am trying to build a modern penthouse.";;;Building two thick walls can help improve interiors by allowing more flexibility with wall colours without modifying the exterior.;;;;;;;;;None;;;;;;;;;;;;;;;;;;;;;;;;None;;;;;;None;;;None;;;None;;;None;;;None;;;None;;;;;;;;;;;;;;;;;;;;;;;;;;;;;;;;;4;;;1;;;2023-11-02_12h46.42.420;;;TEST_eye_tracker;;;2023.1.0;;;None;;;
