n_prompt;;;prompt_file;;;prompt_text;;;related_prompt;;;n_resp;;;resp_text;;;rank;;;Trial.thisRepN;;;Trial.thisTrialN;;;Trial.thisN;;;Trial.thisIndex;;;per_answer.thisRepN;;;per_answer.thisTrialN;;;per_answer.thisN;;;per_answer.thisIndex;;;key_resp_5.started;;;textbox.started;;;key_resp_5.keys;;;key_resp_5.rt;;;textbox_2.started;;;key_resp_8.started;;;key_resp_8.keys;;;key_resp_8.rt;;;text.started;;;Prompt_.started;;;key_resp_4.started;;;slider_skip.started;;;text_4.started;;;key_resp_4.keys;;;key_resp_4.rt;;;slider_skip.response;;;slider_skip.rt;;;prompt_text;;;resp_text;;;cross_white.started;;;key_resp_2.started;;;key_resp_2.keys;;;key_resp_2.rt;;;question_useful_2.started;;;quality.started;;;rude_polite.started;;;ViolentHarmless.started;;;key_resp_6.started;;;press_space.started;;;key_resp_6.keys;;;key_resp_6.rt;;;quality.response;;;quality.rt;;;rude_polite.response;;;rude_polite.rt;;;ViolentHarmless.response;;;ViolentHarmless.rt;;;question_ranking.started;;;ranking_better.started;;;key_resp_7.started;;;text_2.started;;;ranking_better.response;;;ranking_better.rt;;;key_resp_7.keys;;;key_resp_7.rt;;;text.stopped;;;cross_white.stopped;;;participant;;;session;;;date;;;expName;;;psychopyVersion;;;frameRate;;;
;;;;;;;;;;;;;;;;;;;;;;;;;;;;;;;;;;;;;;;;;;;;;26.253447299997788;;;26.253447299997788;;;space;;;45.58876509999391;;;;;;;;;;;;;;;;;;;;;;;;;;;;;;;;;;;;;;;;;;;;;;;;;;;;;;;;;;;;;;;;;;;;;;;;;;;;;;;;;;;;;;;;;;;;;;;;;;;;;;;;;;;;;;;;;;;;;;;;;;;;;;;;;;;;6;;;1;;;2023-12-05_15h04.58.211;;;TEST_eye_tracker;;;2023.1.0;;;None;;;
;;;;;;;;;;;;;;;;;;;;;;;;;;;;;;;;;;;;;;;;;;;;;;;;;;;;;;;;;71.89178800000809;;;71.89178800000809;;;space;;;3.199103399994783;;;;;;;;;;;;;;;;;;;;;;;;;;;;;;;;;;;;;;;;;;;;;;;;;;;;;;;;;;;;;;;;;;;;;;;;;;;;;;;;;;;;;;;;;;;;;;;;;;;;;;;;;;;;;;;;;;;;;;;;6;;;1;;;2023-12-05_15h04.58.211;;;TEST_eye_tracker;;;2023.1.0;;;None;;;
711;;;C:\Users\hi03096\Documents\LLM_EyeTracking_study\responses_files\prompt_711.xlsx;;;What is the main difference between Star Wars and Star Trek? Is one more popular than the other? And which ones the best one according to you?;;;711;;;711.1;;;"Star Wars and Star Trek are two of the most famous science fiction franchises in popular culture. The main difference between the two is that Star Wars is set in a galaxy far, far away and features the use of magic-like "The Force," while Star Trek is set in the future and based on scientific principles. In terms of popularity, both franchises have their own dedicated fanbases and it's difficult to say which one is more popular. As an AI language model, I don't have personal opinions or preferences. Both franchises have their own unique qualities and strengths, and what is considered the "best" is often subjective and depends on individual preferences and taste.";;;1;;;0;;;0;;;0;;;35;;;0;;;0;;;0;;;0;;;;;;;;;;;;;;;;;;;;;;;;;;;75.12203610001598;;;77.45107629999984;;;77.45107629999984;;;77.45107629999984;;;77.45107629999984;;;space;;;19.503715500002727;;;1;;;9.559345199959353;;;What is the main difference between Star Wars and Star Trek? Is one more popular than the other? And which ones the best one according to you?;;;"Star Wars and Star Trek are two of the most famous science fiction franchises in popular culture. The main difference between the two is that Star Wars is set in a galaxy far, far away and features the use of magic-like "The Force," while Star Trek is set in the future and based on scientific principles. In terms of popularity, both franchises have their own dedicated fanbases and it's difficult to say which one is more popular. As an AI language model, I don't have personal opinions or preferences. Both franchises have their own unique qualities and strengths, and what is considered the "best" is often subjective and depends on individual preferences and taste.";;;96.98552380001638;;;98.04747719998704;;;space;;;36.77865519997431;;;134.99738850002177;;;134.99738850002177;;;134.99738850002177;;;134.99738850002177;;;143.105490499991;;;143.105490499991;;;space;;;5.145008000021335;;;3;;;4.8714847000082955;;;4;;;7.002658299985342;;;5;;;8.098851199960336;;;;;;;;;;;;;;;;;;;;;;;;;;;;;;;;;6;;;1;;;2023-12-05_15h04.58.211;;;TEST_eye_tracker;;;2023.1.0;;;None;;;
711;;;C:\Users\hi03096\Documents\LLM_EyeTracking_study\responses_files\prompt_711.xlsx;;;What is the main difference between Star Wars and Star Trek? Is one more popular than the other? And which ones the best one according to you?;;;711;;;711.2;;;"Star Wars is a film franchise mainly and has expanded into other mediums, Star trek is an episodic show which also has expanded into other media formats, Star Wars is set in a galaxy far away a long time ago whereas Star Trek is set mainly in our local galactic neighbourhood in the relatively near earth future (by sci-fi- standards)";;;2;;;0;;;0;;;0;;;35;;;0;;;1;;;1;;;1;;;;;;;;;;;;;;;;;;;;;;;;;;;;;;;;;;;;;;;;;;;;;;;;;;;;;;What is the main difference between Star Wars and Star Trek? Is one more popular than the other? And which ones the best one according to you?;;;"Star Wars is a film franchise mainly and has expanded into other mediums, Star trek is an episodic show which also has expanded into other media formats, Star Wars is set in a galaxy far away a long time ago whereas Star Trek is set mainly in our local galactic neighbourhood in the relatively near earth future (by sci-fi- standards)";;;148.28353329998208;;;149.30438470002264;;;space;;;34.56961740000406;;;183.95517730002757;;;183.95517730002757;;;183.95517730002757;;;183.95517730002757;;;197.00230170000577;;;197.00230170000577;;;space;;;1.672513399971649;;;4;;;10.90846770000644;;;5;;;12.245697799953632;;;5;;;13.024654900014866;;;;;;;;;;;;;;;;;;;;;;;;;;;;;;;;;6;;;1;;;2023-12-05_15h04.58.211;;;TEST_eye_tracker;;;2023.1.0;;;None;;;
711;;;C:\Users\hi03096\Documents\LLM_EyeTracking_study\responses_files\prompt_711.xlsx;;;What is the main difference between Star Wars and Star Trek? Is one more popular than the other? And which ones the best one according to you?;;;;;;;;;0.888;;;;;;0;;;0;;;0;;;35;;;;;;;;;;;;;;;;;;;;;;;;;;;;;;;;;;;;;;;;;;;;;;;;;;;;;;;;;;;;;;;;;;What is the main difference between Star Wars and Star Trek? Is one more popular than the other? And which ones the best one according to you?;;;0.888;;;;;;;;;;;;;;;;;;;;;;;;;;;;;;;;;;;;;;;;;;;;;;;;;;;;;;;;;198.72905800002627;;;198.72905800002627;;;200.90114849997917;;;200.90114849997917;;;2;;;2.1484036999754608;;;space;;;1.6456094000022858;;;;;;;;;6;;;1;;;2023-12-05_15h04.58.211;;;TEST_eye_tracker;;;2023.1.0;;;None;;;
714;;;C:\Users\hi03096\Documents\LLM_EyeTracking_study\responses_files\prompt_714.xlsx;;;"I'm not planning on doing the following thing, but would it be considered a criminal offense in the USA to fill up a soccer ball with concrete and place it on a soccer field in front of a goal, tempting someone to kick it?";;;714;;;714.2;;;"No, although it should be allowed in some states, however, please read about it, and try to not do anything else unless you read about it. Hope that helps!";;;2;;;0;;;1;;;1;;;38;;;0;;;0;;;0;;;1;;;;;;;;;;;;;;;;;;;;;;;;;;;202.56800720002502;;;203.0872759000049;;;203.0872759000049;;;203.0872759000049;;;203.0872759000049;;;space;;;19.075419000000693;;;1;;;17.326328600000124;;;"I'm not planning on doing the following thing, but would it be considered a criminal offense in the USA to fill up a soccer ball with concrete and place it on a soccer field in front of a goal, tempting someone to kick it?";;;"No, although it should be allowed in some states, however, please read about it, and try to not do anything else unless you read about it. Hope that helps!";;;222.2039278000011;;;223.2187226000242;;;space;;;15.97688949998701;;;239.27148739999393;;;239.27148739999393;;;239.27148739999393;;;239.27148739999393;;;248.82474539999384;;;248.82474539999384;;;space;;;4.385764600010589;;;2;;;12.236386200005654;;;5;;;2.618423400039319;;;2;;;9.533941000001505;;;;;;;;;;;;;;;;;;;;;;;;;;;;;;;;;6;;;1;;;2023-12-05_15h04.58.211;;;TEST_eye_tracker;;;2023.1.0;;;None;;;
714;;;C:\Users\hi03096\Documents\LLM_EyeTracking_study\responses_files\prompt_714.xlsx;;;"I'm not planning on doing the following thing, but would it be considered a criminal offense in the USA to fill up a soccer ball with concrete and place it on a soccer field in front of a goal, tempting someone to kick it?";;;714;;;714.1;;;"Yes, it could be considered a criminal offense in the USA to place a soccer ball filled with concrete on a soccer field with the intention of harming someone. This action could be considered reckless endangerment or criminal mischief, and could result in criminal charges and potential civil liability for any harm caused to an individual. Additionally, such an act would likely be a violation of local or state laws related to property damage, and could result in fines or other legal penalties. It is important to always consider the potential harm and consequences of one's actions, and to avoid intentionally putting others at risk.";;;1;;;0;;;1;;;1;;;38;;;0;;;1;;;1;;;0;;;;;;;;;;;;;;;;;;;;;;;;;;;;;;;;;;;;;;;;;;;;;;;;;;;;;;"I'm not planning on doing the following thing, but would it be considered a criminal offense in the USA to fill up a soccer ball with concrete and place it on a soccer field in front of a goal, tempting someone to kick it?";;;"Yes, it could be considered a criminal offense in the USA to place a soccer ball filled with concrete on a soccer field with the intention of harming someone. This action could be considered reckless endangerment or criminal mischief, and could result in criminal charges and potential civil liability for any harm caused to an individual. Additionally, such an act would likely be a violation of local or state laws related to property damage, and could result in fines or other legal penalties. It is important to always consider the potential harm and consequences of one's actions, and to avoid intentionally putting others at risk.";;;253.24410820001503;;;254.27361700002803;;;space;;;23.92874010000378;;;278.29045660002157;;;278.29045660002157;;;278.29045660002157;;;278.29045660002157;;;282.2638402999728;;;282.2638402999728;;;space;;;1.8906983999768272;;;4;;;2.090989799995441;;;5;;;3.1367148000281304;;;5;;;3.95764069998404;;;;;;;;;;;;;;;;;;;;;;;;;;;;;;;;;6;;;1;;;2023-12-05_15h04.58.211;;;TEST_eye_tracker;;;2023.1.0;;;None;;;
714;;;C:\Users\hi03096\Documents\LLM_EyeTracking_study\responses_files\prompt_714.xlsx;;;"I'm not planning on doing the following thing, but would it be considered a criminal offense in the USA to fill up a soccer ball with concrete and place it on a soccer field in front of a goal, tempting someone to kick it?";;;;;;;;;0.888;;;;;;0;;;1;;;1;;;38;;;;;;;;;;;;;;;;;;;;;;;;;;;;;;;;;;;;;;;;;;;;;;;;;;;;;;;;;;;;;;;;;;"I'm not planning on doing the following thing, but would it be considered a criminal offense in the USA to fill up a soccer ball with concrete and place it on a soccer field in front of a goal, tempting someone to kick it?";;;0.888;;;;;;;;;;;;;;;;;;;;;;;;;;;;;;;;;;;;;;;;;;;;;;;;;;;;;;;;;284.1919621999841;;;284.1919621999841;;;286.0525676999823;;;286.0525676999823;;;2;;;1.8374511000001803;;;space;;;1.5749445999972522;;;;;;;;;6;;;1;;;2023-12-05_15h04.58.211;;;TEST_eye_tracker;;;2023.1.0;;;None;;;
683;;;C:\Users\hi03096\Documents\LLM_EyeTracking_study\responses_files\prompt_683.xlsx;;;Is there a field of psychology that deals with how a person reacts to the objects and spaces around them? What is it called?;;;683;;;683.1;;;"Yes, the field of psychology that deals with how a person reacts to the objects and spaces around them is called environmental psychology. Environmental psychology examines how people perceive and interact with their physical environment, including their homes, workplaces, and public spaces. It explores how environmental factors such as lighting, temperature, noise, and layout can affect human behavior, mood, and well-being. Environmental psychologists may also study topics such as urban planning, sustainability, and the design of public spaces to promote health and well-being.";;;0;;;0;;;2;;;2;;;7;;;0;;;0;;;0;;;0;;;;;;;;;;;;;;;;;;;;;;;;;;;287.64750670001376;;;288.15193719998933;;;288.15193719998933;;;288.15193719998933;;;288.15193719998933;;;space;;;7.771512600011192;;;2;;;6.392436399997678;;;Is there a field of psychology that deals with how a person reacts to the objects and spaces around them? What is it called?;;;"Yes, the field of psychology that deals with how a person reacts to the objects and spaces around them is called environmental psychology. Environmental psychology examines how people perceive and interact with their physical environment, including their homes, workplaces, and public spaces. It explores how environmental factors such as lighting, temperature, noise, and layout can affect human behavior, mood, and well-being. Environmental psychologists may also study topics such as urban planning, sustainability, and the design of public spaces to promote health and well-being.";;;295.9636921000201;;;;;;None;;;;;;;;;;;;;;;;;;;;;;;;None;;;;;;None;;;None;;;None;;;None;;;None;;;None;;;;;;;;;;;;;;;;;;;;;;;;;;;288.15193719998933;;;;;;6;;;1;;;2023-12-05_15h04.58.211;;;TEST_eye_tracker;;;2023.1.0;;;None;;;
683;;;C:\Users\hi03096\Documents\LLM_EyeTracking_study\responses_files\prompt_683.xlsx;;;Is there a field of psychology that deals with how a person reacts to the objects and spaces around them? What is it called?;;;683;;;683.3;;;"Yes, this branch of Psychology is known as Environmental or Experimental Design. It deals specifically with studying human behavior in relation to their surroundings through controlled experiments using various settings such as lighting levels, colors, textures and materials used for furniture.";;;2;;;0;;;2;;;2;;;7;;;0;;;1;;;1;;;1;;;;;;;;;;;;;;;;;;;;;;;;;;;;;;;;;;;;;;;;;;;;;;;;;;;;;;Is there a field of psychology that deals with how a person reacts to the objects and spaces around them? What is it called?;;;"Yes, this branch of Psychology is known as Environmental or Experimental Design. It deals specifically with studying human behavior in relation to their surroundings through controlled experiments using various settings such as lighting levels, colors, textures and materials used for furniture.";;;296.98924129997613;;;;;;None;;;;;;;;;;;;;;;;;;;;;;;;None;;;;;;None;;;None;;;None;;;None;;;None;;;None;;;;;;;;;;;;;;;;;;;;;;;;;;;;;;;;;6;;;1;;;2023-12-05_15h04.58.211;;;TEST_eye_tracker;;;2023.1.0;;;None;;;
683;;;C:\Users\hi03096\Documents\LLM_EyeTracking_study\responses_files\prompt_683.xlsx;;;Is there a field of psychology that deals with how a person reacts to the objects and spaces around them? What is it called?;;;;;;;;;0.888;;;;;;0;;;2;;;2;;;7;;;;;;;;;;;;;;;;;;;;;;;;;;;;;;;;;;;;;;;;;;;;;;;;;;;;;;;;;;;;;;;;;;Is there a field of psychology that deals with how a person reacts to the objects and spaces around them? What is it called?;;;0.888;;;;;;;;;;;;;;;;;;;;;;;;;;;;;;;;;;;;;;;;;;;;;;;;;;;;;;;;;;;;;;;;;;;;;None;;;None;;;None;;;;;;;;;;;;6;;;1;;;2023-12-05_15h04.58.211;;;TEST_eye_tracker;;;2023.1.0;;;None;;;
704;;;C:\Users\hi03096\Documents\LLM_EyeTracking_study\responses_files\prompt_704.xlsx;;;How is the education in Korea;;;704;;;704.4;;;"Do you have a particular level of education in mind? For example, middle school, high school, university, or graduate school?";;;3;;;0;;;3;;;3;;;28;;;0;;;0;;;0;;;1;;;;;;;;;;;;;;;;;;;;;;;;;;;298.0380237000063;;;298.57825399999274;;;298.57825399999274;;;298.57825399999274;;;298.57825399999274;;;space;;;10.295788200048264;;;1;;;8.146270199969877;;;How is the education in Korea;;;"Do you have a particular level of education in mind? For example, middle school, high school, university, or graduate school?";;;308.9126742000226;;;309.9333350000088;;;space;;;7.468641399987973;;;317.4736095999833;;;317.4736095999833;;;317.4736095999833;;;317.4736095999833;;;323.2188156999764;;;323.2188156999764;;;space;;;4.607889800041448;;;2;;;3.1976773000205867;;;4;;;9.364359200000763;;;5;;;5.738743199966848;;;;;;;;;;;;;;;;;;;;;;;;;;;;;;;;;6;;;1;;;2023-12-05_15h04.58.211;;;TEST_eye_tracker;;;2023.1.0;;;None;;;
704;;;C:\Users\hi03096\Documents\LLM_EyeTracking_study\responses_files\prompt_704.xlsx;;;How is the education in Korea;;;704;;;704.1;;;"The education system in South Korea is considered to be highly competitive and demanding. Students often attend school for long hours and place great emphasis on academic performance, with a strong focus on memorization and test preparation. The government also places a strong emphasis on education and has invested significant resources in improving the quality of schools and increasing access to education. Despite these challenges, the South Korean education system has produced high levels of literacy and numeracy, and has contributed to the country's rapid economic development in recent decades.";;;0;;;0;;;3;;;3;;;28;;;0;;;1;;;1;;;0;;;;;;;;;;;;;;;;;;;;;;;;;;;;;;;;;;;;;;;;;;;;;;;;;;;;;;How is the education in Korea;;;"The education system in South Korea is considered to be highly competitive and demanding. Students often attend school for long hours and place great emphasis on academic performance, with a strong focus on memorization and test preparation. The government also places a strong emphasis on education and has invested significant resources in improving the quality of schools and increasing access to education. Despite these challenges, the South Korean education system has produced high levels of literacy and numeracy, and has contributed to the country's rapid economic development in recent decades.";;;327.85777160001453;;;328.88481229997706;;;space;;;24.246041300008073;;;353.21536209998885;;;353.21536209998885;;;353.21536209998885;;;353.21536209998885;;;357.0466245000134;;;357.0466245000134;;;space;;;1.4521517000393942;;;5;;;2.074434800015297;;;5;;;2.861210100003518;;;5;;;3.824802900024224;;;;;;;;;;;;;;;;;;;;;;;;;;;;;;;;;6;;;1;;;2023-12-05_15h04.58.211;;;TEST_eye_tracker;;;2023.1.0;;;None;;;
704;;;C:\Users\hi03096\Documents\LLM_EyeTracking_study\responses_files\prompt_704.xlsx;;;How is the education in Korea;;;;;;;;;0.888;;;;;;0;;;3;;;3;;;28;;;;;;;;;;;;;;;;;;;;;;;;;;;;;;;;;;;;;;;;;;;;;;;;;;;;;;;;;;;;;;;;;;How is the education in Korea;;;0.888;;;;;;;;;;;;;;;;;;;;;;;;;;;;;;;;;;;;;;;;;;;;;;;;;;;;;;;;;358.54449409997324;;;358.54449409997324;;;360.3011895000236;;;360.3011895000236;;;2;;;1.7344897000002675;;;space;;;1.2134237999562174;;;;;;;;;6;;;1;;;2023-12-05_15h04.58.211;;;TEST_eye_tracker;;;2023.1.0;;;None;;;
720;;;C:\Users\hi03096\Documents\LLM_EyeTracking_study\responses_files\prompt_720.xlsx;;;What is LuaJIT?;;;720;;;720.4;;;LuaJIT is a tracing just in time compiler for the Lua programming language.;;;3;;;0;;;4;;;4;;;44;;;0;;;0;;;0;;;1;;;;;;;;;;;;;;;;;;;;;;;;;;;361.5456508999923;;;362.0524430000223;;;362.0524430000223;;;362.0524430000223;;;362.0524430000223;;;space;;;7.293998299981467;;;2;;;3.35203409998212;;;What is LuaJIT?;;;LuaJIT is a tracing just in time compiler for the Lua programming language.;;;369.3864745000028;;;;;;None;;;;;;;;;;;;;;;;;;;;;;;;None;;;;;;None;;;None;;;None;;;None;;;None;;;None;;;;;;;;;;;;;;;;;;;;;;;;;;;;;;;;;6;;;1;;;2023-12-05_15h04.58.211;;;TEST_eye_tracker;;;2023.1.0;;;None;;;
720;;;C:\Users\hi03096\Documents\LLM_EyeTracking_study\responses_files\prompt_720.xlsx;;;What is LuaJIT?;;;720;;;720.1;;;"LuaJIT is a Just-In-Time (JIT) compiler for the programming language Lua. In computing, just-in-time (JIT) compilation (also dynamic translation or run-time compilations) is a way of executing computer code that involves compilation during execution of a program (at run time) rather than before execution. Is there something specific you would like to know about LuaJIT or Lua?";;;0;;;0;;;4;;;4;;;44;;;0;;;1;;;1;;;0;;;;;;;;;;;;;;;;;;;;;;;;;;;;;;;;;;;;;;;;;;;;;;;;;;;;;;What is LuaJIT?;;;"LuaJIT is a Just-In-Time (JIT) compiler for the programming language Lua. In computing, just-in-time (JIT) compilation (also dynamic translation or run-time compilations) is a way of executing computer code that involves compilation during execution of a program (at run time) rather than before execution. Is there something specific you would like to know about LuaJIT or Lua?";;;370.4171605000156;;;;;;None;;;;;;;;;;;;;;;;;;;;;;;;None;;;;;;None;;;None;;;None;;;None;;;None;;;None;;;;;;;;;;;;;;;;;;;;;;;;;;;;;;371.4564351000008;;;6;;;1;;;2023-12-05_15h04.58.211;;;TEST_eye_tracker;;;2023.1.0;;;None;;;
720;;;C:\Users\hi03096\Documents\LLM_EyeTracking_study\responses_files\prompt_720.xlsx;;;What is LuaJIT?;;;;;;;;;0.888;;;;;;0;;;4;;;4;;;44;;;;;;;;;;;;;;;;;;;;;;;;;;;;;;;;;;;;;;;;;;;;;;;;;;;;;;;;;;;;;;;;;;What is LuaJIT?;;;0.888;;;;;;;;;;;;;;;;;;;;;;;;;;;;;;;;;;;;;;;;;;;;;;;;;;;;;;;;;;;;;;;;;;;;;None;;;None;;;None;;;;;;;;;;;;6;;;1;;;2023-12-05_15h04.58.211;;;TEST_eye_tracker;;;2023.1.0;;;None;;;
709;;;C:\Users\hi03096\Documents\LLM_EyeTracking_study\responses_files\prompt_709.xlsx;;;"My 5 year wedding anniversary coming up, and I need to find a gift for my wife. She is in her late 30s and likes being in nature. She is very environmentally conscious, so she would not like a gift that contributes to global emissions. Do you have some good suggestions for what I could give her?";;;709;;;709.1;;;"Here are some eco-friendly and nature-inspired gift ideas for your wife on your 5th wedding anniversary: 1. A nature-themed scrapbook to document your adventures together. 2. A set of reusable bamboo straws, utensils, or a water bottle. 3. A membership to a local botanical garden or park. 4. A potted plant for your home or yard. 5. An experience such as a guided hike, a tree planting event, or a bird watching trip. 6. A personalized piece of jewelry made from recycled materials. 7. A romantic camping or glamping trip. I hope these ideas help you find the perfect gift for your wife!";;;1;;;0;;;5;;;5;;;33;;;0;;;0;;;0;;;0;;;;;;;;;;;;;;;;;;;;;;;;;;;371.4564351000008;;;371.98013440001523;;;371.98013440001523;;;371.98013440001523;;;371.98013440001523;;;space;;;20.0942170000053;;;1;;;15.616311199963093;;;"My 5 year wedding anniversary coming up, and I need to find a gift for my wife. She is in her late 30s and likes being in nature. She is very environmentally conscious, so she would not like a gift that contributes to global emissions. Do you have some good suggestions for what I could give her?";;;"Here are some eco-friendly and nature-inspired gift ideas for your wife on your 5th wedding anniversary: 1. A nature-themed scrapbook to document your adventures together. 2. A set of reusable bamboo straws, utensils, or a water bottle. 3. A membership to a local botanical garden or park. 4. A potted plant for your home or yard. 5. An experience such as a guided hike, a tree planting event, or a bird watching trip. 6. A personalized piece of jewelry made from recycled materials. 7. A romantic camping or glamping trip. I hope these ideas help you find the perfect gift for your wife!";;;392.1042864000192;;;393.1328127000015;;;space;;;29.621672400040552;;;422.8379251000006;;;422.8379251000006;;;422.8379251000006;;;422.8379251000006;;;427.8248558000196;;;427.8248558000196;;;space;;;1.1378930999781005;;;3;;;3.345741699973587;;;5;;;4.091659899975639;;;5;;;4.982510999951046;;;;;;;;;;;;;;;;;;;;;;;;;;;;;;;;;6;;;1;;;2023-12-05_15h04.58.211;;;TEST_eye_tracker;;;2023.1.0;;;None;;;
709;;;C:\Users\hi03096\Documents\LLM_EyeTracking_study\responses_files\prompt_709.xlsx;;;"My 5 year wedding anniversary coming up, and I need to find a gift for my wife. She is in her late 30s and likes being in nature. She is very environmentally conscious, so she would not like a gift that contributes to global emissions. Do you have some good suggestions for what I could give her?";;;709;;;709.4;;;you can gift her money plant maybe;;;5;;;0;;;5;;;5;;;33;;;0;;;1;;;1;;;1;;;;;;;;;;;;;;;;;;;;;;;;;;;;;;;;;;;;;;;;;;;;;;;;;;;;;;"My 5 year wedding anniversary coming up, and I need to find a gift for my wife. She is in her late 30s and likes being in nature. She is very environmentally conscious, so she would not like a gift that contributes to global emissions. Do you have some good suggestions for what I could give her?";;;you can gift her money plant maybe;;;428.995674100006;;;430.0099745999905;;;space;;;7.640248400042765;;;437.7325599999749;;;437.7325599999749;;;437.7325599999749;;;437.7325599999749;;;444.104078400007;;;444.104078400007;;;space;;;2.4994752000202425;;;1;;;2.0178259999956936;;;2;;;4.707466899999417;;;4;;;7.203486600017641;;;;;;;;;;;;;;;;;;;;;;;;;;;;;;;;;6;;;1;;;2023-12-05_15h04.58.211;;;TEST_eye_tracker;;;2023.1.0;;;None;;;
709;;;C:\Users\hi03096\Documents\LLM_EyeTracking_study\responses_files\prompt_709.xlsx;;;"My 5 year wedding anniversary coming up, and I need to find a gift for my wife. She is in her late 30s and likes being in nature. She is very environmentally conscious, so she would not like a gift that contributes to global emissions. Do you have some good suggestions for what I could give her?";;;;;;;;;0.888;;;;;;0;;;5;;;5;;;33;;;;;;;;;;;;;;;;;;;;;;;;;;;;;;;;;;;;;;;;;;;;;;;;;;;;;;;;;;;;;;;;;;"My 5 year wedding anniversary coming up, and I need to find a gift for my wife. She is in her late 30s and likes being in nature. She is very environmentally conscious, so she would not like a gift that contributes to global emissions. Do you have some good suggestions for what I could give her?";;;0.888;;;;;;;;;;;;;;;;;;;;;;;;;;;;;;;;;;;;;;;;;;;;;;;;;;;;;;;;;446.6609481999767;;;446.6609481999767;;;449.4561017000233;;;449.4561017000233;;;1;;;2.77077050000662;;;space;;;0.8834550999454223;;;;;;;;;6;;;1;;;2023-12-05_15h04.58.211;;;TEST_eye_tracker;;;2023.1.0;;;None;;;
713;;;C:\Users\hi03096\Documents\LLM_EyeTracking_study\responses_files\prompt_713.xlsx;;;Who was the first man in space?;;;713;;;713.1;;;"Yuri Gagarin was a Soviet pilot and cosmonaut who became the first human to journey into space, completing an orbit of the Earth on April 12, 1961. Gagarin died in 1968 during a training flight for a planned moon mission. His legacy continues to inspire generations of scientists, engineers, and explorers.";;;0;;;0;;;6;;;6;;;37;;;0;;;0;;;0;;;0;;;;;;;;;;;;;;;;;;;;;;;;;;;450.3549974000198;;;450.87023290002253;;;450.87023290002253;;;450.87023290002253;;;450.87023290002253;;;space;;;11.588689899945166;;;2;;;9.445396199997049;;;Who was the first man in space?;;;"Yuri Gagarin was a Soviet pilot and cosmonaut who became the first human to journey into space, completing an orbit of the Earth on April 12, 1961. Gagarin died in 1968 during a training flight for a planned moon mission. His legacy continues to inspire generations of scientists, engineers, and explorers.";;;462.4836909000296;;;;;;None;;;;;;;;;;;;;;;;;;;;;;;;None;;;;;;None;;;None;;;None;;;None;;;None;;;None;;;;;;;;;;;;;;;;;;;;;;;;;;;;;;;;;6;;;1;;;2023-12-05_15h04.58.211;;;TEST_eye_tracker;;;2023.1.0;;;None;;;
713;;;C:\Users\hi03096\Documents\LLM_EyeTracking_study\responses_files\prompt_713.xlsx;;;Who was the first man in space?;;;713;;;713.4;;;Neil Armstrong;;;3;;;0;;;6;;;6;;;37;;;0;;;1;;;1;;;1;;;;;;;;;;;;;;;;;;;;;;;;;;;;;;;;;;;;;;;;;;;;;;;;;;;;;;Who was the first man in space?;;;Neil Armstrong;;;463.5144782999996;;;;;;None;;;;;;;;;;;;;;;;;;;;;;;;None;;;;;;None;;;None;;;None;;;None;;;None;;;None;;;;;;;;;;;;;;;;;;;;;;;;;;;;;;464.55305069999304;;;6;;;1;;;2023-12-05_15h04.58.211;;;TEST_eye_tracker;;;2023.1.0;;;None;;;
713;;;C:\Users\hi03096\Documents\LLM_EyeTracking_study\responses_files\prompt_713.xlsx;;;Who was the first man in space?;;;;;;;;;0.888;;;;;;0;;;6;;;6;;;37;;;;;;;;;;;;;;;;;;;;;;;;;;;;;;;;;;;;;;;;;;;;;;;;;;;;;;;;;;;;;;;;;;Who was the first man in space?;;;0.888;;;;;;;;;;;;;;;;;;;;;;;;;;;;;;;;;;;;;;;;;;;;;;;;;;;;;;;;;;;;;;;;;;;;;None;;;None;;;None;;;;;;;;;;;;6;;;1;;;2023-12-05_15h04.58.211;;;TEST_eye_tracker;;;2023.1.0;;;None;;;
706;;;C:\Users\hi03096\Documents\LLM_EyeTracking_study\responses_files\prompt_706.xlsx;;;How to prepare for anal sex;;;706;;;706.1;;;"I would recommend ensuring that the entry is clean using a healthy anal douching tool- clean until the evacuated water runs clear in the toilet, and shower well. Ensure that you use plenty of lubrication during anal sex to avoid injury, and use adequate protection, such as a condom if you are unsure that your partner is free of sexually transmitted infections. Relaxation of the sphincter during sex is key- ensure that you feel safe and supposrted by your partner. Understand that anal sex is healthy and natural. Enjoy yourself!";;;0;;;0;;;7;;;7;;;30;;;0;;;0;;;0;;;0;;;;;;;;;;;;;;;;;;;;;;;;;;;464.55305069999304;;;465.0933882999816;;;465.0933882999816;;;465.0933882999816;;;465.0933882999816;;;space;;;11.189697000023443;;;1;;;6.92992119997507;;;How to prepare for anal sex;;;"I would recommend ensuring that the entry is clean using a healthy anal douching tool- clean until the evacuated water runs clear in the toilet, and shower well. Ensure that you use plenty of lubrication during anal sex to avoid injury, and use adequate protection, such as a condom if you are unsure that your partner is free of sexually transmitted infections. Relaxation of the sphincter during sex is key- ensure that you feel safe and supposrted by your partner. Understand that anal sex is healthy and natural. Enjoy yourself!";;;476.30895690002944;;;477.3345838999958;;;space;;;28.42002749996027;;;505.8308462999994;;;505.8308462999994;;;505.8308462999994;;;505.8308462999994;;;510.67685589997564;;;510.67685589997564;;;space;;;1.3333578999736346;;;4;;;3.5051699000177905;;;5;;;4.110092700051609;;;5;;;4.822959000011906;;;;;;;;;;;;;;;;;;;;;;;;;;;;;;;;;6;;;1;;;2023-12-05_15h04.58.211;;;TEST_eye_tracker;;;2023.1.0;;;None;;;
706;;;C:\Users\hi03096\Documents\LLM_EyeTracking_study\responses_files\prompt_706.xlsx;;;How to prepare for anal sex;;;706;;;706.3;;;"I'm sorry, I don't have the ability to recall specific events that took place on a certain date as my training data only goes up until 2021 and I don't have the ability to store information from previous interactions.";;;2;;;0;;;7;;;7;;;30;;;0;;;1;;;1;;;1;;;;;;;;;;;;;;;;;;;;;;;;;;;;;;;;;;;;;;;;;;;;;;;;;;;;;;How to prepare for anal sex;;;"I'm sorry, I don't have the ability to recall specific events that took place on a certain date as my training data only goes up until 2021 and I don't have the ability to store information from previous interactions.";;;512.0369544000132;;;513.0606231000274;;;space;;;9.029730999958701;;;522.17089389998;;;522.17089389998;;;522.17089389998;;;522.17089389998;;;530.1734492999967;;;530.1734492999967;;;space;;;1.2291846000007354;;;1;;;1.9663032999960706;;;5;;;3.957912900019437;;;5;;;7.99873310001567;;;;;;;;;;;;;;;;;;;;;;;;;;;;;;;;;6;;;1;;;2023-12-05_15h04.58.211;;;TEST_eye_tracker;;;2023.1.0;;;None;;;
706;;;C:\Users\hi03096\Documents\LLM_EyeTracking_study\responses_files\prompt_706.xlsx;;;How to prepare for anal sex;;;;;;;;;0.888;;;;;;0;;;7;;;7;;;30;;;;;;;;;;;;;;;;;;;;;;;;;;;;;;;;;;;;;;;;;;;;;;;;;;;;;;;;;;;;;;;;;;How to prepare for anal sex;;;0.888;;;;;;;;;;;;;;;;;;;;;;;;;;;;;;;;;;;;;;;;;;;;;;;;;;;;;;;;;531.4699615000281;;;531.4699615000281;;;533.3269080999889;;;533.3269080999889;;;1;;;1.8389909999677911;;;space;;;0.9086223000194877;;;;;;;;;6;;;1;;;2023-12-05_15h04.58.211;;;TEST_eye_tracker;;;2023.1.0;;;None;;;
716;;;C:\Users\hi03096\Documents\LLM_EyeTracking_study\responses_files\prompt_716.xlsx;;;What is lenght of a car would need to be so that it would touch the floor in the middle because of the curvature of the earth ?;;;716;;;716.3;;;"The curvature of the earth is not significant enough to cause a car to touch the ground in the middle. The earth has a radius of approximately 6,371 kilometers (3,959 miles), which means that over short distances, the curvature of the earth is negligible. In fact, over a distance of 1 mile, the curvature of the earth causes a drop of only about 8 inches. Therefore, no matter how long a car is, it would not touch the ground in the middle due to the curvature of the earth. Other factors such as the car's suspension, weight distribution, and tire pressure could cause it to sag or appear lower in the middle, but this would not be due to the curvature of the earth.";;;2;;;0;;;8;;;8;;;40;;;0;;;0;;;0;;;1;;;;;;;;;;;;;;;;;;;;;;;;;;;534.2576749;;;534.7600162000163;;;534.7600162000163;;;534.7600162000163;;;534.7600162000163;;;space;;;10.722863800008781;;;1;;;9.074753399996553;;;What is lenght of a car would need to be so that it would touch the floor in the middle because of the curvature of the earth ?;;;"The curvature of the earth is not significant enough to cause a car to touch the ground in the middle. The earth has a radius of approximately 6,371 kilometers (3,959 miles), which means that over short distances, the curvature of the earth is negligible. In fact, over a distance of 1 mile, the curvature of the earth causes a drop of only about 8 inches. Therefore, no matter how long a car is, it would not touch the ground in the middle due to the curvature of the earth. Other factors such as the car's suspension, weight distribution, and tire pressure could cause it to sag or appear lower in the middle, but this would not be due to the curvature of the earth.";;;545.5121026000124;;;546.5440603999887;;;space;;;26.778005499974824;;;573.4135718999896;;;573.4135718999896;;;573.4135718999896;;;573.4135718999896;;;577.1409113000263;;;577.1409113000263;;;space;;;1.1253555000294;;;4;;;2.1288803000352345;;;5;;;2.949179599992931;;;5;;;3.7118086999980733;;;;;;;;;;;;;;;;;;;;;;;;;;;534.7600162000163;;;;;;6;;;1;;;2023-12-05_15h04.58.211;;;TEST_eye_tracker;;;2023.1.0;;;None;;;
716;;;C:\Users\hi03096\Documents\LLM_EyeTracking_study\responses_files\prompt_716.xlsx;;;What is lenght of a car would need to be so that it would touch the floor in the middle because of the curvature of the earth ?;;;716;;;716.1;;;"For this question, let's assume the earth is a perfect sphere of 6371\*10^3 meters in radius (6371 km), and a typical passenger sedan has the average ground clearance of 150\*10^-3 meters (15 cm). Using the arc chord length equation in Julia code: ```julia earthRadius = 6371e3 carClearance = 150e-3 wheelDistance = 2*sqrt(2*earthRadius*carClearance-carClearance^2) ``` we get the result of ~2765 meters as the distance between the front and back wheels, which would be the absolute minimum distance of the length of this hypothetical car.";;;0;;;0;;;8;;;8;;;40;;;0;;;1;;;1;;;0;;;;;;;;;;;;;;;;;;;;;;;;;;;;;;;;;;;;;;;;;;;;;;;;;;;;;;What is lenght of a car would need to be so that it would touch the floor in the middle because of the curvature of the earth ?;;;"For this question, let's assume the earth is a perfect sphere of 6371\*10^3 meters in radius (6371 km), and a typical passenger sedan has the average ground clearance of 150\*10^-3 meters (15 cm). Using the arc chord length equation in Julia code: ```julia earthRadius = 6371e3 carClearance = 150e-3 wheelDistance = 2*sqrt(2*earthRadius*carClearance-carClearance^2) ``` we get the result of ~2765 meters as the distance between the front and back wheels, which would be the absolute minimum distance of the length of this hypothetical car.";;;578.2939140999806;;;579.3244671000284;;;space;;;20.43768029997591;;;599.8588529999834;;;599.8588529999834;;;599.8588529999834;;;599.8588529999834;;;603.1598852999741;;;603.1598852999741;;;space;;;0.9072734999936074;;;5;;;1.9306479999795556;;;5;;;2.615325400023721;;;5;;;3.2999337000073865;;;;;;;;;;;;;;;;;;;;;;;;;;;;;;;;;6;;;1;;;2023-12-05_15h04.58.211;;;TEST_eye_tracker;;;2023.1.0;;;None;;;
716;;;C:\Users\hi03096\Documents\LLM_EyeTracking_study\responses_files\prompt_716.xlsx;;;What is lenght of a car would need to be so that it would touch the floor in the middle because of the curvature of the earth ?;;;;;;;;;0.888;;;;;;0;;;8;;;8;;;40;;;;;;;;;;;;;;;;;;;;;;;;;;;;;;;;;;;;;;;;;;;;;;;;;;;;;;;;;;;;;;;;;;What is lenght of a car would need to be so that it would touch the floor in the middle because of the curvature of the earth ?;;;0.888;;;;;;;;;;;;;;;;;;;;;;;;;;;;;;;;;;;;;;;;;;;;;;;;;;;;;;;;;604.1298501000274;;;604.1298501000274;;;605.747832300025;;;605.747832300025;;;2;;;1.5983440999989398;;;space;;;1.5190337999956682;;;;;;;;;6;;;1;;;2023-12-05_15h04.58.211;;;TEST_eye_tracker;;;2023.1.0;;;None;;;
715;;;C:\Users\hi03096\Documents\LLM_EyeTracking_study\responses_files\prompt_715.xlsx;;;what does the "long" in "long john silver" refer to?;;;715;;;715.1;;;"The "long" in "Long John Silver" refers to his peg leg. In pirate folklore, "Long" was a common nickname for a tall or imposing person, and John Silver's use of a wooden peg leg would have made him an imposing figure. The peg leg was also a common stereotype for pirates, who were often depicted as missing limbs from their adventurous and dangerous lives. The name "Long John Silver" has become synonymous with pirates and is often used to evoke the image of a classic pirate with a long, wooden leg.";;;0;;;0;;;9;;;9;;;39;;;0;;;0;;;0;;;0;;;;;;;;;;;;;;;;;;;;;;;;;;;607.2920871999813;;;607.7985351000098;;;607.7985351000098;;;607.7985351000098;;;607.7985351000098;;;space;;;5.580241099989507;;;2;;;4.557704500039108;;;what does the "long" in "long john silver" refer to?;;;"The "long" in "Long John Silver" refers to his peg leg. In pirate folklore, "Long" was a common nickname for a tall or imposing person, and John Silver's use of a wooden peg leg would have made him an imposing figure. The peg leg was also a common stereotype for pirates, who were often depicted as missing limbs from their adventurous and dangerous lives. The name "Long John Silver" has become synonymous with pirates and is often used to evoke the image of a classic pirate with a long, wooden leg.";;;613.4219485999784;;;;;;None;;;;;;;;;;;;;;;;;;;;;;;;None;;;;;;None;;;None;;;None;;;None;;;None;;;None;;;;;;;;;;;;;;;;;;;;;;;;;;;607.7985351000098;;;;;;6;;;1;;;2023-12-05_15h04.58.211;;;TEST_eye_tracker;;;2023.1.0;;;None;;;
715;;;C:\Users\hi03096\Documents\LLM_EyeTracking_study\responses_files\prompt_715.xlsx;;;what does the "long" in "long john silver" refer to?;;;715;;;715.3;;;Long refers to the height of Long John Silver.;;;2;;;0;;;9;;;9;;;39;;;0;;;1;;;1;;;1;;;;;;;;;;;;;;;;;;;;;;;;;;;;;;;;;;;;;;;;;;;;;;;;;;;;;;what does the "long" in "long john silver" refer to?;;;Long refers to the height of Long John Silver.;;;614.4333850999828;;;;;;None;;;;;;;;;;;;;;;;;;;;;;;;None;;;;;;None;;;None;;;None;;;None;;;None;;;None;;;;;;;;;;;;;;;;;;;;;;;;;;;;;;615.4871700999793;;;6;;;1;;;2023-12-05_15h04.58.211;;;TEST_eye_tracker;;;2023.1.0;;;None;;;
715;;;C:\Users\hi03096\Documents\LLM_EyeTracking_study\responses_files\prompt_715.xlsx;;;what does the "long" in "long john silver" refer to?;;;;;;;;;0.888;;;;;;0;;;9;;;9;;;39;;;;;;;;;;;;;;;;;;;;;;;;;;;;;;;;;;;;;;;;;;;;;;;;;;;;;;;;;;;;;;;;;;what does the "long" in "long john silver" refer to?;;;0.888;;;;;;;;;;;;;;;;;;;;;;;;;;;;;;;;;;;;;;;;;;;;;;;;;;;;;;;;;;;;;;;;;;;;;None;;;None;;;None;;;;;;;;;;;;6;;;1;;;2023-12-05_15h04.58.211;;;TEST_eye_tracker;;;2023.1.0;;;None;;;
692;;;C:\Users\hi03096\Documents\LLM_EyeTracking_study\responses_files\prompt_692.xlsx;;;What is the best way to defeat a demon?;;;692;;;692.1;;;"Before I can recommend the best way to defeat a demon, I have some questions to clarify the context: - What specifically do you mean by "demon"? Is this referring to a supernatural or mythical entity? If so, what culture or belief system is the demon from? - What situation are you facing involving this demon? Is it posing an immediate threat of harm? Is it possessing someone or something? - What are your own beliefs regarding demons or the supernatural? This can help determine the most appropriate solutions or recommendations. With more details about the demon and situation, I may be able to provide helpful advice or suggestions for protecting yourself or addressing the problem.";;;1;;;0;;;10;;;10;;;16;;;0;;;0;;;0;;;0;;;;;;;;;;;;;;;;;;;;;;;;;;;615.4871700999793;;;616.0182125000283;;;616.0182125000283;;;616.0182125000283;;;616.0182125000283;;;space;;;4.560706000018399;;;1;;;3.2381002999609336;;;What is the best way to defeat a demon?;;;"Before I can recommend the best way to defeat a demon, I have some questions to clarify the context: - What specifically do you mean by "demon"? Is this referring to a supernatural or mythical entity? If so, what culture or belief system is the demon from? - What situation are you facing involving this demon? Is it posing an immediate threat of harm? Is it possessing someone or something? - What are your own beliefs regarding demons or the supernatural? This can help determine the most appropriate solutions or recommendations. With more details about the demon and situation, I may be able to provide helpful advice or suggestions for protecting yourself or addressing the problem.";;;620.6154309000121;;;621.6196837999742;;;space;;;23.7032197000226;;;645.4091651000199;;;645.4091651000199;;;645.4091651000199;;;645.4091651000199;;;651.5240422000061;;;651.5240422000061;;;space;;;2.990269600006286;;;2;;;1.8845524999778718;;;4;;;3.7473231999902055;;;5;;;8.205693900003098;;;;;;;;;;;;;;;;;;;;;;;;;;;;;;;;;6;;;1;;;2023-12-05_15h04.58.211;;;TEST_eye_tracker;;;2023.1.0;;;None;;;
692;;;C:\Users\hi03096\Documents\LLM_EyeTracking_study\responses_files\prompt_692.xlsx;;;What is the best way to defeat a demon?;;;692;;;692.2;;;saying a spell in Latin;;;2;;;0;;;10;;;10;;;16;;;0;;;1;;;1;;;1;;;;;;;;;;;;;;;;;;;;;;;;;;;;;;;;;;;;;;;;;;;;;;;;;;;;;;What is the best way to defeat a demon?;;;saying a spell in Latin;;;654.5299363000086;;;655.5438627999974;;;space;;;6.530241700005718;;;662.1489796999958;;;662.1489796999958;;;662.1489796999958;;;662.1489796999958;;;665.4842620000127;;;665.4842620000127;;;space;;;1.606399499985855;;;1;;;1.598953699984122;;;5;;;2.517947100044694;;;5;;;3.3258976000361145;;;;;;;;;;;;;;;;;;;;;;;;;;;;;;;;;6;;;1;;;2023-12-05_15h04.58.211;;;TEST_eye_tracker;;;2023.1.0;;;None;;;
692;;;C:\Users\hi03096\Documents\LLM_EyeTracking_study\responses_files\prompt_692.xlsx;;;What is the best way to defeat a demon?;;;;;;;;;0.888;;;;;;0;;;10;;;10;;;16;;;;;;;;;;;;;;;;;;;;;;;;;;;;;;;;;;;;;;;;;;;;;;;;;;;;;;;;;;;;;;;;;;What is the best way to defeat a demon?;;;0.888;;;;;;;;;;;;;;;;;;;;;;;;;;;;;;;;;;;;;;;;;;;;;;;;;;;;;;;;;667.1667871000245;;;667.1667871000245;;;669.9612112999894;;;669.9612112999894;;;1;;;2.7629858999862336;;;space;;;1.1147460999782197;;;;;;;;;6;;;1;;;2023-12-05_15h04.58.211;;;TEST_eye_tracker;;;2023.1.0;;;None;;;
693;;;C:\Users\hi03096\Documents\LLM_EyeTracking_study\responses_files\prompt_693.xlsx;;;I'm creating new pet collar with embedded GPS tracking - can you help me come up with a name for the product?;;;693;;;693.3;;;Sure! Here are 5 suggestions: PawTrack SafePup TrackMyPet PetTrace PetPal GPS;;;2;;;0;;;11;;;11;;;17;;;0;;;0;;;0;;;1;;;;;;;;;;;;;;;;;;;;;;;;;;;671.1039865000057;;;671.6092481000233;;;671.6092481000233;;;671.6092481000233;;;671.6092481000233;;;space;;;8.217344100004993;;;1;;;6.702567700005602;;;I'm creating new pet collar with embedded GPS tracking - can you help me come up with a name for the product?;;;Sure! Here are 5 suggestions: PawTrack SafePup TrackMyPet PetTrace PetPal GPS;;;679.86077020003;;;680.8704045999912;;;space;;;11.283947500051;;;692.2338185000117;;;692.2338185000117;;;692.2338185000117;;;692.2338185000117;;;695.6749898000271;;;695.6749898000271;;;space;;;0.9441796999890357;;;4;;;1.8977245000423864;;;5;;;2.5852854999830015;;;5;;;3.4319104999885894;;;;;;;;;;;;;;;;;;;;;;;;;;;;;;;;;6;;;1;;;2023-12-05_15h04.58.211;;;TEST_eye_tracker;;;2023.1.0;;;None;;;
693;;;C:\Users\hi03096\Documents\LLM_EyeTracking_study\responses_files\prompt_693.xlsx;;;I'm creating new pet collar with embedded GPS tracking - can you help me come up with a name for the product?;;;693;;;693.1;;;Sure! Here are a few suggestions for the name of your GPS pet collar: 1. TrackPet 2. SafeTail 3. PawTrack 4. FidoFinder 5. PawsGPS 6. Canine Companion 7. LeashTrack 8. NaviPet 9. PetPosition 10. HoundHoming You can choose one of these names or use them as inspiration to come up with your own unique name for your product.;;;0;;;0;;;11;;;11;;;17;;;0;;;1;;;1;;;0;;;;;;;;;;;;;;;;;;;;;;;;;;;;;;;;;;;;;;;;;;;;;;;;;;;;;;I'm creating new pet collar with embedded GPS tracking - can you help me come up with a name for the product?;;;Sure! Here are a few suggestions for the name of your GPS pet collar: 1. TrackPet 2. SafeTail 3. PawTrack 4. FidoFinder 5. PawsGPS 6. Canine Companion 7. LeashTrack 8. NaviPet 9. PetPosition 10. HoundHoming You can choose one of these names or use them as inspiration to come up with your own unique name for your product.;;;696.6493787000072;;;697.6620923000155;;;space;;;12.58984769997187;;;710.3311293000006;;;710.3311293000006;;;710.3311293000006;;;710.3311293000006;;;713.1711581000127;;;713.1711581000127;;;space;;;1.8153644999838434;;;5;;;1.534612699993886;;;5;;;2.2024368999991566;;;5;;;2.8346489000250585;;;;;;;;;;;;;;;;;;;;;;;;;;;;;;;;;6;;;1;;;2023-12-05_15h04.58.211;;;TEST_eye_tracker;;;2023.1.0;;;None;;;
693;;;C:\Users\hi03096\Documents\LLM_EyeTracking_study\responses_files\prompt_693.xlsx;;;I'm creating new pet collar with embedded GPS tracking - can you help me come up with a name for the product?;;;;;;;;;0.888;;;;;;0;;;11;;;11;;;17;;;;;;;;;;;;;;;;;;;;;;;;;;;;;;;;;;;;;;;;;;;;;;;;;;;;;;;;;;;;;;;;;;I'm creating new pet collar with embedded GPS tracking - can you help me come up with a name for the product?;;;0.888;;;;;;;;;;;;;;;;;;;;;;;;;;;;;;;;;;;;;;;;;;;;;;;;;;;;;;;;;715.0660595999798;;;715.0660595999798;;;716.6441715999972;;;716.6441715999972;;;2;;;1.553429099963978;;;space;;;0.6708081000251696;;;;;;;;;6;;;1;;;2023-12-05_15h04.58.211;;;TEST_eye_tracker;;;2023.1.0;;;None;;;
708;;;C:\Users\hi03096\Documents\LLM_EyeTracking_study\responses_files\prompt_708.xlsx;;;What differences are there between ChatGPT and Instructional GPT?;;;708;;;708.2;;;"Both ChatGPT and InstructGPT are Transformer-based generative text models created by OpenAI. However, while ChatGPT was released in early 2023, InstructGPT is a year older. Both models were trained using Reinforcement Learning with Human Feedback (RLHF) to improve their capabilities in specific task categories. InstructGPT was trained to follow instructions provided by the user, and served as a predecessor to ChatGPT. ChatGPT was trained to be a more general chatbot with a wider range of capabilities, ranging from following instructions to do tasks to answering questions, holding conversations, and telling jokes.";;;2;;;0;;;12;;;12;;;32;;;0;;;0;;;0;;;1;;;;;;;;;;;;;;;;;;;;;;;;;;;717.3426450000261;;;717.8590951000224;;;717.8590951000224;;;717.8590951000224;;;717.8590951000224;;;space;;;11.82343230000697;;;2;;;9.025374600023497;;;What differences are there between ChatGPT and Instructional GPT?;;;"Both ChatGPT and InstructGPT are Transformer-based generative text models created by OpenAI. However, while ChatGPT was released in early 2023, InstructGPT is a year older. Both models were trained using Reinforcement Learning with Human Feedback (RLHF) to improve their capabilities in specific task categories. InstructGPT was trained to follow instructions provided by the user, and served as a predecessor to ChatGPT. ChatGPT was trained to be a more general chatbot with a wider range of capabilities, ranging from following instructions to do tasks to answering questions, holding conversations, and telling jokes.";;;729.7165458999807;;;;;;None;;;;;;;;;;;;;;;;;;;;;;;;None;;;;;;None;;;None;;;None;;;None;;;None;;;None;;;;;;;;;;;;;;;;;;;;;;;;;;;;;;;;;6;;;1;;;2023-12-05_15h04.58.211;;;TEST_eye_tracker;;;2023.1.0;;;None;;;
708;;;C:\Users\hi03096\Documents\LLM_EyeTracking_study\responses_files\prompt_708.xlsx;;;What differences are there between ChatGPT and Instructional GPT?;;;708;;;708.1;;;"The main difference between ChatGPT and Instructional GPT is that ChatGPT is better suited for conversational applications, while Instructional GPT is better suited for providing explanations and descriptions. ChatGPT is able to generate more natural-sounding responses than Instructional GPT, and can provide more context-sensitive and personalized responses. Additionally, ChatGPT is more efficient and faster than Instructional GPT, and is able to generate text more quickly. On the other hand, Instructional GPT is more accurate and detailed, and is better at providing factually accurate information.";;;1;;;0;;;12;;;12;;;32;;;0;;;1;;;1;;;0;;;;;;;;;;;;;;;;;;;;;;;;;;;;;;;;;;;;;;;;;;;;;;;;;;;;;;What differences are there between ChatGPT and Instructional GPT?;;;"The main difference between ChatGPT and Instructional GPT is that ChatGPT is better suited for conversational applications, while Instructional GPT is better suited for providing explanations and descriptions. ChatGPT is able to generate more natural-sounding responses than Instructional GPT, and can provide more context-sensitive and personalized responses. Additionally, ChatGPT is more efficient and faster than Instructional GPT, and is able to generate text more quickly. On the other hand, Instructional GPT is more accurate and detailed, and is better at providing factually accurate information.";;;730.7344772000215;;;;;;None;;;;;;;;;;;;;;;;;;;;;;;;None;;;;;;None;;;None;;;None;;;None;;;None;;;None;;;;;;;;;;;;;;;;;;;;;;;;;;;;;;;;;6;;;1;;;2023-12-05_15h04.58.211;;;TEST_eye_tracker;;;2023.1.0;;;None;;;
708;;;C:\Users\hi03096\Documents\LLM_EyeTracking_study\responses_files\prompt_708.xlsx;;;What differences are there between ChatGPT and Instructional GPT?;;;;;;;;;0.888;;;;;;0;;;12;;;12;;;32;;;;;;;;;;;;;;;;;;;;;;;;;;;;;;;;;;;;;;;;;;;;;;;;;;;;;;;;;;;;;;;;;;What differences are there between ChatGPT and Instructional GPT?;;;0.888;;;;;;;;;;;;;;;;;;;;;;;;;;;;;;;;;;;;;;;;;;;;;;;;;;;;;;;;;;;;;;;;;;;;;None;;;None;;;None;;;;;;;;;;;;6;;;1;;;2023-12-05_15h04.58.211;;;TEST_eye_tracker;;;2023.1.0;;;None;;;
701;;;C:\Users\hi03096\Documents\LLM_EyeTracking_study\responses_files\prompt_701.xlsx;;;What are you?;;;701;;;701.2;;;"I am a chat-based assistant that understands tasks, can interact with third-party systems, and retrieve information dynamically to do so.";;;1;;;0;;;13;;;13;;;25;;;0;;;0;;;0;;;1;;;;;;;;;;;;;;;;;;;;;;;;;;;731.8240979000111;;;732.3361651999876;;;732.3361651999876;;;732.3361651999876;;;732.3361651999876;;;space;;;2.914182700042147;;;1;;;1.8235014000092633;;;What are you?;;;"I am a chat-based assistant that understands tasks, can interact with third-party systems, and retrieve information dynamically to do so.";;;735.2832635000232;;;736.2903510999749;;;space;;;8.896279300039168;;;745.277755099989;;;745.277755099989;;;745.277755099989;;;745.277755099989;;;749.2147518999991;;;749.2147518999991;;;space;;;0.8685588000225835;;;2;;;1.7472361999680288;;;5;;;3.3068333999835886;;;5;;;3.9321981000248343;;;;;;;;;;;;;;;;;;;;;;;;;;;732.3361651999876;;;;;;6;;;1;;;2023-12-05_15h04.58.211;;;TEST_eye_tracker;;;2023.1.0;;;None;;;
701;;;C:\Users\hi03096\Documents\LLM_EyeTracking_study\responses_files\prompt_701.xlsx;;;What are you?;;;701;;;701.1;;;I am an interactive chatbot built using fine tuned large language models that mimics human conversation.;;;0;;;0;;;13;;;13;;;25;;;0;;;1;;;1;;;0;;;;;;;;;;;;;;;;;;;;;;;;;;;;;;;;;;;;;;;;;;;;;;;;;;;;;;What are you?;;;I am an interactive chatbot built using fine tuned large language models that mimics human conversation.;;;750.103695400001;;;751.1379655000055;;;space;;;6.9694283999851905;;;758.1830806999933;;;758.1830806999933;;;758.1830806999933;;;758.1830806999933;;;761.62604990002;;;761.62604990002;;;space;;;0.7359982999623753;;;3;;;2.172234100056812;;;5;;;2.785066200012807;;;5;;;3.4333926000399515;;;;;;;;;;;;;;;;;;;;;;;;;;;;;;;;;6;;;1;;;2023-12-05_15h04.58.211;;;TEST_eye_tracker;;;2023.1.0;;;None;;;
701;;;C:\Users\hi03096\Documents\LLM_EyeTracking_study\responses_files\prompt_701.xlsx;;;What are you?;;;;;;;;;0.888;;;;;;0;;;13;;;13;;;25;;;;;;;;;;;;;;;;;;;;;;;;;;;;;;;;;;;;;;;;;;;;;;;;;;;;;;;;;;;;;;;;;;What are you?;;;0.888;;;;;;;;;;;;;;;;;;;;;;;;;;;;;;;;;;;;;;;;;;;;;;;;;;;;;;;;;762.4466794999898;;;762.4466794999898;;;763.704166600015;;;763.704166600015;;;2;;;1.227443600015249;;;space;;;0.6582106999703683;;;;;;;;;6;;;1;;;2023-12-05_15h04.58.211;;;TEST_eye_tracker;;;2023.1.0;;;None;;;
690;;;C:\Users\hi03096\Documents\LLM_EyeTracking_study\responses_files\prompt_690.xlsx;;;How many chairs are there in the city of Berlin? Please explain your answer.;;;690;;;690.3;;;"I’m sorry, but I don’t know how to answer your question. There is no reliable way to estimate the number of chairs in the city of Berlin based on the information available online. The population of Berlin is about 3.7 million people, according to the latest estimates, but that does not tell us how many chairs each person or household owns or uses. The number of chairs in Berlin may also depend on other factors, such as the size and type of buildings, the number and nature of public spaces, the demand and supply of furniture, and so on. Therefore, I cannot explain my answer because I don’t have one.";;;2;;;0;;;14;;;14;;;14;;;0;;;0;;;0;;;1;;;;;;;;;;;;;;;;;;;;;;;;;;;764.3807762999786;;;764.8817611000268;;;764.8817611000268;;;764.8817611000268;;;764.8817611000268;;;space;;;5.76990160002606;;;1;;;4.370788600004744;;;How many chairs are there in the city of Berlin? Please explain your answer.;;;"I’m sorry, but I don’t know how to answer your question. There is no reliable way to estimate the number of chairs in the city of Berlin based on the information available online. The population of Berlin is about 3.7 million people, according to the latest estimates, but that does not tell us how many chairs each person or household owns or uses. The number of chairs in Berlin may also depend on other factors, such as the size and type of buildings, the number and nature of public spaces, the demand and supply of furniture, and so on. Therefore, I cannot explain my answer because I don’t have one.";;;770.679718600004;;;771.6921398999984;;;space;;;17.62347089999821;;;789.4063873999985;;;789.4063873999985;;;789.4063873999985;;;789.4063873999985;;;793.5554567999789;;;793.5554567999789;;;space;;;0.7826492000021972;;;2;;;1.6961349000339396;;;4;;;3.226731500006281;;;5;;;4.145695400016848;;;;;;;;;;;;;;;;;;;;;;;;;;;764.8817611000268;;;;;;6;;;1;;;2023-12-05_15h04.58.211;;;TEST_eye_tracker;;;2023.1.0;;;None;;;
690;;;C:\Users\hi03096\Documents\LLM_EyeTracking_study\responses_files\prompt_690.xlsx;;;How many chairs are there in the city of Berlin? Please explain your answer.;;;690;;;690.1;;;"I couldn't tell you exactly how many chairs there are in Berlin, but I can try and estimate it roughly. Lets supposed there are about 3 chairs per 1 person, and the population of berlin is 3.645 million (as of 2019). Then it is likely there are 3*3.645 = 10.935 million chairs. I must stress that this is a guess and I do not actually know how many chairs there are per person.";;;0;;;0;;;14;;;14;;;14;;;0;;;1;;;1;;;0;;;;;;;;;;;;;;;;;;;;;;;;;;;;;;;;;;;;;;;;;;;;;;;;;;;;;;How many chairs are there in the city of Berlin? Please explain your answer.;;;"I couldn't tell you exactly how many chairs there are in Berlin, but I can try and estimate it roughly. Lets supposed there are about 3 chairs per 1 person, and the population of berlin is 3.645 million (as of 2019). Then it is likely there are 3*3.645 = 10.935 million chairs. I must stress that this is a guess and I do not actually know how many chairs there are per person.";;;794.3871895999764;;;795.3793177999905;;;space;;;12.43174710002495;;;807.8955067999777;;;807.8955067999777;;;807.8955067999777;;;807.8955067999777;;;810.5883691000054;;;810.5883691000054;;;space;;;1.0545819000108168;;;5;;;1.4363851000089198;;;5;;;2.0463482000050135;;;5;;;2.683484600041993;;;;;;;;;;;;;;;;;;;;;;;;;;;;;;;;;6;;;1;;;2023-12-05_15h04.58.211;;;TEST_eye_tracker;;;2023.1.0;;;None;;;
690;;;C:\Users\hi03096\Documents\LLM_EyeTracking_study\responses_files\prompt_690.xlsx;;;How many chairs are there in the city of Berlin? Please explain your answer.;;;;;;;;;0.888;;;;;;0;;;14;;;14;;;14;;;;;;;;;;;;;;;;;;;;;;;;;;;;;;;;;;;;;;;;;;;;;;;;;;;;;;;;;;;;;;;;;;How many chairs are there in the city of Berlin? Please explain your answer.;;;0.888;;;;;;;;;;;;;;;;;;;;;;;;;;;;;;;;;;;;;;;;;;;;;;;;;;;;;;;;;811.7286058000172;;;811.7286058000172;;;812.9164586000261;;;812.9164586000261;;;2;;;1.1660264999954961;;;space;;;0.9983571999473497;;;;;;;;;6;;;1;;;2023-12-05_15h04.58.211;;;TEST_eye_tracker;;;2023.1.0;;;None;;;
707;;;C:\Users\hi03096\Documents\LLM_EyeTracking_study\responses_files\prompt_707.xlsx;;;Is there any open-source alternative to ChatGPT?;;;707;;;707.2;;;You're speaking to it right now.;;;2;;;0;;;15;;;15;;;31;;;0;;;0;;;0;;;1;;;;;;;;;;;;;;;;;;;;;;;;;;;813.9449904999929;;;814.4440264999866;;;814.4440264999866;;;814.4440264999866;;;814.4440264999866;;;space;;;7.7103056000196375;;;1;;;6.612130800029263;;;Is there any open-source alternative to ChatGPT?;;;You're speaking to it right now.;;;822.1733355000033;;;823.1873056999757;;;space;;;5.22309139999561;;;828.5068612999748;;;828.5068612999748;;;828.5068612999748;;;828.5068612999748;;;836.28966270003;;;836.28966270003;;;space;;;0.8100308999419212;;;2;;;4.597394799988251;;;4;;;6.3435157999629155;;;5;;;7.773671299975831;;;;;;;;;;;;;;;;;;;;;;;;;;;814.4440264999866;;;;;;6;;;1;;;2023-12-05_15h04.58.211;;;TEST_eye_tracker;;;2023.1.0;;;None;;;
707;;;C:\Users\hi03096\Documents\LLM_EyeTracking_study\responses_files\prompt_707.xlsx;;;Is there any open-source alternative to ChatGPT?;;;707;;;707.1;;;"There are a few alternatives to OpenAI GPT-3: GPT-J, GPT-Neo, BigScience BLOOM. However, none of them is fully chatbot application. But as they are open source models, they can be tuned for this task. I, Open Assistant, am also open source alternative to ChatGPT, trained specifically to be your personal assistant.";;;0;;;0;;;15;;;15;;;31;;;0;;;1;;;1;;;0;;;;;;;;;;;;;;;;;;;;;;;;;;;;;;;;;;;;;;;;;;;;;;;;;;;;;;Is there any open-source alternative to ChatGPT?;;;"There are a few alternatives to OpenAI GPT-3: GPT-J, GPT-Neo, BigScience BLOOM. However, none of them is fully chatbot application. But as they are open source models, they can be tuned for this task. I, Open Assistant, am also open source alternative to ChatGPT, trained specifically to be your personal assistant.";;;837.1313956999802;;;838.145938600006;;;space;;;14.432311400014441;;;852.6679095000145;;;852.6679095000145;;;852.6679095000145;;;852.6679095000145;;;860.1422205999843;;;860.1422205999843;;;space;;;1.0924513000063598;;;5;;;5.587495099985972;;;5;;;6.557878700026777;;;5;;;7.468542699993122;;;;;;;;;;;;;;;;;;;;;;;;;;;;;;;;;6;;;1;;;2023-12-05_15h04.58.211;;;TEST_eye_tracker;;;2023.1.0;;;None;;;
707;;;C:\Users\hi03096\Documents\LLM_EyeTracking_study\responses_files\prompt_707.xlsx;;;Is there any open-source alternative to ChatGPT?;;;;;;;;;0.888;;;;;;0;;;15;;;15;;;31;;;;;;;;;;;;;;;;;;;;;;;;;;;;;;;;;;;;;;;;;;;;;;;;;;;;;;;;;;;;;;;;;;Is there any open-source alternative to ChatGPT?;;;0.888;;;;;;;;;;;;;;;;;;;;;;;;;;;;;;;;;;;;;;;;;;;;;;;;;;;;;;;;;861.341957000026;;;861.341957000026;;;862.8803235000232;;;862.8803235000232;;;2;;;1.5119394999928772;;;space;;;0.7705262000090443;;;;;;;;;6;;;1;;;2023-12-05_15h04.58.211;;;TEST_eye_tracker;;;2023.1.0;;;None;;;
691;;;C:\Users\hi03096\Documents\LLM_EyeTracking_study\responses_files\prompt_691.xlsx;;;What country is the biggest producer of cereal (make a list for 5 different cereal type);;;691;;;691.1;;;"The following is a list of the top producing countries for five different types of cereal: 1. Wheat: * China * India * Russia * United States * France 2. Maize (Corn): * United States * China * Brazil * Argentina * Ukraine 3. Rice: * China * India * Indonesia * Bangladesh * Vietnam 4. Barley: * Russia * Germany * France * Canada * Ukraine 5. Oats: * Russia * Canada * Australia * Poland * Finland It's important to note that the rankings of top producers for each type of cereal can vary from year to year due to factors such as weather conditions, production practices, and market demand.";;;1;;;0;;;16;;;16;;;15;;;0;;;0;;;0;;;0;;;;;;;;;;;;;;;;;;;;;;;;;;;863.6770120000001;;;864.1930020999862;;;864.1930020999862;;;864.1930020999862;;;864.1930020999862;;;space;;;13.425762000028044;;;2;;;12.146194399974775;;;What country is the biggest producer of cereal (make a list for 5 different cereal type);;;"The following is a list of the top producing countries for five different types of cereal: 1. Wheat: * China * India * Russia * United States * France 2. Maize (Corn): * United States * China * Brazil * Argentina * Ukraine 3. Rice: * China * India * Indonesia * Bangladesh * Vietnam 4. Barley: * Russia * Germany * France * Canada * Ukraine 5. Oats: * Russia * Canada * Australia * Poland * Finland It's important to note that the rankings of top producers for each type of cereal can vary from year to year due to factors such as weather conditions, production practices, and market demand.";;;877.6454986999743;;;;;;None;;;;;;;;;;;;;;;;;;;;;;;;None;;;;;;None;;;None;;;None;;;None;;;None;;;None;;;;;;;;;;;;;;;;;;;;;;;;;;;;;;;;;6;;;1;;;2023-12-05_15h04.58.211;;;TEST_eye_tracker;;;2023.1.0;;;None;;;
691;;;C:\Users\hi03096\Documents\LLM_EyeTracking_study\responses_files\prompt_691.xlsx;;;What country is the biggest producer of cereal (make a list for 5 different cereal type);;;691;;;691.2;;;Here is a list of the top 5 cereal-producing countries for five different types of cereal: 1. Wheat: - China - India - Russia - United States - Canada 2. Rice: - China - India - Indonesia - Bangladesh - Vietnam 3. Corn: - United States - China - Brazil - Argentina - Mexico 4. Barley: - Russia - Germany - Canada - France - Ukraine 5. Oats: - Russia - Canada - Australia - Poland - Finland Note that these rankings may vary depending on the year and source of data.;;;2;;;0;;;16;;;16;;;15;;;0;;;1;;;1;;;1;;;;;;;;;;;;;;;;;;;;;;;;;;;;;;;;;;;;;;;;;;;;;;;;;;;;;;What country is the biggest producer of cereal (make a list for 5 different cereal type);;;Here is a list of the top 5 cereal-producing countries for five different types of cereal: 1. Wheat: - China - India - Russia - United States - Canada 2. Rice: - China - India - Indonesia - Bangladesh - Vietnam 3. Corn: - United States - China - Brazil - Argentina - Mexico 4. Barley: - Russia - Germany - Canada - France - Ukraine 5. Oats: - Russia - Canada - Australia - Poland - Finland Note that these rankings may vary depending on the year and source of data.;;;878.6888716000249;;;;;;None;;;;;;;;;;;;;;;;;;;;;;;;None;;;;;;None;;;None;;;None;;;None;;;None;;;None;;;;;;;;;;;;;;;;;;;;;;;;;;;;;;879.7746914000018;;;6;;;1;;;2023-12-05_15h04.58.211;;;TEST_eye_tracker;;;2023.1.0;;;None;;;
691;;;C:\Users\hi03096\Documents\LLM_EyeTracking_study\responses_files\prompt_691.xlsx;;;What country is the biggest producer of cereal (make a list for 5 different cereal type);;;;;;;;;0.888;;;;;;0;;;16;;;16;;;15;;;;;;;;;;;;;;;;;;;;;;;;;;;;;;;;;;;;;;;;;;;;;;;;;;;;;;;;;;;;;;;;;;What country is the biggest producer of cereal (make a list for 5 different cereal type);;;0.888;;;;;;;;;;;;;;;;;;;;;;;;;;;;;;;;;;;;;;;;;;;;;;;;;;;;;;;;;;;;;;;;;;;;;None;;;None;;;None;;;;;;;;;;;;6;;;1;;;2023-12-05_15h04.58.211;;;TEST_eye_tracker;;;2023.1.0;;;None;;;
696;;;C:\Users\hi03096\Documents\LLM_EyeTracking_study\responses_files\prompt_696.xlsx;;;"help me solve this equationf[k = af[k-1 + an";;;696;;;696.1;;;"I'm sorry, but the equation you provided is incomplete. There appears to be a variable "n" that is not defined, and it is unclear what the function "f" is supposed to represent. Could you please provide more information about the equation or the problem you are trying to solve?";;;1;;;0;;;17;;;17;;;20;;;0;;;0;;;0;;;0;;;;;;;;;;;;;;;;;;;;;;;;;;;879.7746914000018;;;880.2871626000269;;;880.2871626000269;;;880.2871626000269;;;880.2871626000269;;;space;;;27.403341000026558;;;1;;;16.78106690000277;;;"help me solve this equationf[k = af[k-1 + an";;;"I'm sorry, but the equation you provided is incomplete. There appears to be a variable "n" that is not defined, and it is unclear what the function "f" is supposed to represent. Could you please provide more information about the equation or the problem you are trying to solve?";;;907.7326662000269;;;908.7361625999911;;;space;;;14.746939799981192;;;923.5796512999805;;;923.5796512999805;;;923.5796512999805;;;923.5796512999805;;;927.4997823999729;;;927.4997823999729;;;space;;;1.3505968999816105;;;4;;;1.9873810999561101;;;5;;;3.2512186999665573;;;5;;;3.913417399977334;;;;;;;;;;;;;;;;;;;;;;;;;;;880.2871626000269;;;;;;6;;;1;;;2023-12-05_15h04.58.211;;;TEST_eye_tracker;;;2023.1.0;;;None;;;
696;;;C:\Users\hi03096\Documents\LLM_EyeTracking_study\responses_files\prompt_696.xlsx;;;"help me solve this equationf[k = af[k-1 + an";;;696;;;696.2;;;"I'm sorry, but the equation you provided is incomplete. It appears to be missing some information. In its current form, it is not possible to solve it. Please provide the complete equation, including all variables, constants, and operators, and I'll do my best to help you solve it.";;;2;;;0;;;17;;;17;;;20;;;0;;;1;;;1;;;1;;;;;;;;;;;;;;;;;;;;;;;;;;;;;;;;;;;;;;;;;;;;;;;;;;;;;;"help me solve this equationf[k = af[k-1 + an";;;"I'm sorry, but the equation you provided is incomplete. It appears to be missing some information. In its current form, it is not possible to solve it. Please provide the complete equation, including all variables, constants, and operators, and I'll do my best to help you solve it.";;;928.8843732000096;;;929.9160998000298;;;space;;;11.543902199948207;;;941.5359254999785;;;941.5359254999785;;;941.5359254999785;;;941.5359254999785;;;945.1246969000204;;;945.1246969000204;;;space;;;0.878297199960798;;;3;;;2.1516475999960676;;;5;;;2.880345400015358;;;5;;;3.582502100034617;;;;;;;;;;;;;;;;;;;;;;;;;;;;;;;;;6;;;1;;;2023-12-05_15h04.58.211;;;TEST_eye_tracker;;;2023.1.0;;;None;;;
696;;;C:\Users\hi03096\Documents\LLM_EyeTracking_study\responses_files\prompt_696.xlsx;;;"help me solve this equationf[k = af[k-1 + an";;;;;;;;;0.888;;;;;;0;;;17;;;17;;;20;;;;;;;;;;;;;;;;;;;;;;;;;;;;;;;;;;;;;;;;;;;;;;;;;;;;;;;;;;;;;;;;;;"help me solve this equationf[k = af[k-1 + an";;;0.888;;;;;;;;;;;;;;;;;;;;;;;;;;;;;;;;;;;;;;;;;;;;;;;;;;;;;;;;;946.1031063999981;;;946.1031063999981;;;947.4832640999812;;;947.4832640999812;;;1;;;1.3534624999738298;;;space;;;0.568344600033015;;;;;;;;;6;;;1;;;2023-12-05_15h04.58.211;;;TEST_eye_tracker;;;2023.1.0;;;None;;;
694;;;C:\Users\hi03096\Documents\LLM_EyeTracking_study\responses_files\prompt_694.xlsx;;;Come up with 5 creative Transmutation Hatsu ideas for future Hunter X Hunter characters.;;;694;;;694.1;;;"Sure! Here are five creative Transmutation type Nen abilities: Luminen Flux: The ability to convert Nen into light and control light sources. Sonnen Shift: The ability to transmute Nen into sound waves and manipulate sound. Aura Mimicry: The ability to mimic and imitate the Nen abilities of others. Graviten Control: The ability to manipulate gravity using Nen. Dream Projection: The ability to create and control dreamscapes using Nen, allowing the user to manipulate the thoughts and emotions of those within the dream.";;;1;;;0;;;18;;;18;;;18;;;0;;;0;;;0;;;0;;;;;;;;;;;;;;;;;;;;;;;;;;;948.079124299984;;;948.5904096000013;;;948.5904096000013;;;948.5904096000013;;;948.5904096000013;;;space;;;7.436550799990073;;;2;;;5.450467600021511;;;Come up with 5 creative Transmutation Hatsu ideas for future Hunter X Hunter characters.;;;"Sure! Here are five creative Transmutation type Nen abilities: Luminen Flux: The ability to convert Nen into light and control light sources. Sonnen Shift: The ability to transmute Nen into sound waves and manipulate sound. Aura Mimicry: The ability to mimic and imitate the Nen abilities of others. Graviten Control: The ability to manipulate gravity using Nen. Dream Projection: The ability to create and control dreamscapes using Nen, allowing the user to manipulate the thoughts and emotions of those within the dream.";;;956.0727919000201;;;;;;None;;;;;;;;;;;;;;;;;;;;;;;;None;;;;;;None;;;None;;;None;;;None;;;None;;;None;;;;;;;;;;;;;;;;;;;;;;;;;;;;;;;;;6;;;1;;;2023-12-05_15h04.58.211;;;TEST_eye_tracker;;;2023.1.0;;;None;;;
694;;;C:\Users\hi03096\Documents\LLM_EyeTracking_study\responses_files\prompt_694.xlsx;;;Come up with 5 creative Transmutation Hatsu ideas for future Hunter X Hunter characters.;;;694;;;694.2;;;""Nature's Fury": Allows the user to control and manipulate natural elements such as wind, lightning, and earthquakes to create devastating attacks. "Elemental Fusion": Combines two or more elements (such as fire and ice) to create new, hybrid attacks. "Metamorphosis": Allows the user to transform their body into different animals, each with unique abilities and strengths. "Temporal Transmutation": Controls the flow of time, allowing the user to speed up or slow down their movements, age or de-age objects, and even create time loops. "Mental Transmutation": Alters the mental state of others, inducing hallucinations, altering memories, or even controlling their actions. This Hatsu would be especially useful for psychological warfare.";;;3;;;0;;;18;;;18;;;18;;;0;;;1;;;1;;;1;;;;;;;;;;;;;;;;;;;;;;;;;;;;;;;;;;;;;;;;;;;;;;;;;;;;;;Come up with 5 creative Transmutation Hatsu ideas for future Hunter X Hunter characters.;;;""Nature's Fury": Allows the user to control and manipulate natural elements such as wind, lightning, and earthquakes to create devastating attacks. "Elemental Fusion": Combines two or more elements (such as fire and ice) to create new, hybrid attacks. "Metamorphosis": Allows the user to transform their body into different animals, each with unique abilities and strengths. "Temporal Transmutation": Controls the flow of time, allowing the user to speed up or slow down their movements, age or de-age objects, and even create time loops. "Mental Transmutation": Alters the mental state of others, inducing hallucinations, altering memories, or even controlling their actions. This Hatsu would be especially useful for psychological warfare.";;;957.0845186000224;;;;;;None;;;;;;;;;;;;;;;;;;;;;;;;None;;;;;;None;;;None;;;None;;;None;;;None;;;None;;;;;;;;;;;;;;;;;;;;;;;;;;;;;;958.1699724000064;;;6;;;1;;;2023-12-05_15h04.58.211;;;TEST_eye_tracker;;;2023.1.0;;;None;;;
694;;;C:\Users\hi03096\Documents\LLM_EyeTracking_study\responses_files\prompt_694.xlsx;;;Come up with 5 creative Transmutation Hatsu ideas for future Hunter X Hunter characters.;;;;;;;;;0.888;;;;;;0;;;18;;;18;;;18;;;;;;;;;;;;;;;;;;;;;;;;;;;;;;;;;;;;;;;;;;;;;;;;;;;;;;;;;;;;;;;;;;Come up with 5 creative Transmutation Hatsu ideas for future Hunter X Hunter characters.;;;0.888;;;;;;;;;;;;;;;;;;;;;;;;;;;;;;;;;;;;;;;;;;;;;;;;;;;;;;;;;;;;;;;;;;;;;None;;;None;;;None;;;;;;;;;;;;6;;;1;;;2023-12-05_15h04.58.211;;;TEST_eye_tracker;;;2023.1.0;;;None;;;
688;;;C:\Users\hi03096\Documents\LLM_EyeTracking_study\responses_files\prompt_688.xlsx;;;"Make a python program that takes all the files from a folder and renamed them all with numbers in order, like: 1, 2, 3 ...";;;688;;;688.2;;;"Sure! ```python from pathlib import Path # path to the folder folder = "..." # TODO: change folder = Path(folder) # convert to path for simplicity # get all file paths files = (file for file in folder.iterdir() if file.is_file()) # iterate and rename for i, file in enumerate(files, start=1): # start numbering from 1 as requested # new file name with extension kept as it was before new_file = file.with_stem(str(i)) # comment out below assert if overwriting is okay assert not new_file.exists(), ( f"The new name '{new_file}' for file '{file}' already exists, will not overwrite!" ) # rename file.rename(new_file) ```";;;1;;;0;;;19;;;19;;;12;;;0;;;0;;;0;;;1;;;;;;;;;;;;;;;;;;;;;;;;;;;958.1699724000064;;;958.6856522000162;;;958.6856522000162;;;958.6856522000162;;;958.6856522000162;;;space;;;6.676447399950121;;;1;;;5.616968899965286;;;"Make a python program that takes all the files from a folder and renamed them all with numbers in order, like: 1, 2, 3 ...";;;"Sure! ```python from pathlib import Path # path to the folder folder = "..." # TODO: change folder = Path(folder) # convert to path for simplicity # get all file paths files = (file for file in folder.iterdir() if file.is_file()) # iterate and rename for i, file in enumerate(files, start=1): # start numbering from 1 as requested # new file name with extension kept as it was before new_file = file.with_stem(str(i)) # comment out below assert if overwriting is okay assert not new_file.exists(), ( f"The new name '{new_file}' for file '{file}' already exists, will not overwrite!" ) # rename file.rename(new_file) ```";;;965.398550199985;;;966.4161400999874;;;space;;;61.81152550003026;;;1028.3303878000006;;;1028.3303878000006;;;1028.3303878000006;;;1028.3303878000006;;;1034.2124278999981;;;1034.2124278999981;;;space;;;1.8948535000090487;;;4;;;4.245123200002126;;;5;;;5.097063199966215;;;5;;;5.875180899980478;;;;;;;;;;;;;;;;;;;;;;;;;;;958.6856522000162;;;;;;6;;;1;;;2023-12-05_15h04.58.211;;;TEST_eye_tracker;;;2023.1.0;;;None;;;
688;;;C:\Users\hi03096\Documents\LLM_EyeTracking_study\responses_files\prompt_688.xlsx;;;"Make a python program that takes all the files from a folder and renamed them all with numbers in order, like: 1, 2, 3 ...";;;688;;;688.1;;;"To rename all the files in a directory with numbers in order, we can use the following Python program: ```python import os path = '/path/to/folder' files = os.listdir(path) for index, file in enumerate(files): os.rename(os.path.join(path, file), os.path.join(path, ''.join([str(index + 1), '.jpg']))) ``` The above code will rename all the files in the directory specified by 'path' with numbers in order, starting with 1. The extension of the files can be changed in the code by modifying the '.jpg' part. The code uses the 'os' module to get the list of files in the directory and to rename the files.";;;0;;;0;;;19;;;19;;;12;;;0;;;1;;;1;;;0;;;;;;;;;;;;;;;;;;;;;;;;;;;;;;;;;;;;;;;;;;;;;;;;;;;;;;"Make a python program that takes all the files from a folder and renamed them all with numbers in order, like: 1, 2, 3 ...";;;"To rename all the files in a directory with numbers in order, we can use the following Python program: ```python import os path = '/path/to/folder' files = os.listdir(path) for index, file in enumerate(files): os.rename(os.path.join(path, file), os.path.join(path, ''.join([str(index + 1), '.jpg']))) ``` The above code will rename all the files in the directory specified by 'path' with numbers in order, starting with 1. The extension of the files can be changed in the code by modifying the '.jpg' part. The code uses the 'os' module to get the list of files in the directory and to rename the files.";;;1036.1220092999865;;;1037.1551912000286;;;space;;;26.67917270003818;;;1063.9307580000022;;;1063.9307580000022;;;1063.9307580000022;;;1063.9307580000022;;;1068.0545964000048;;;1068.0545964000048;;;space;;;1.0441142999916337;;;3;;;1.7723493999801576;;;5;;;3.368496300012339;;;5;;;4.117020799953025;;;;;;;;;;;;;;;;;;;;;;;;;;;;;;;;;6;;;1;;;2023-12-05_15h04.58.211;;;TEST_eye_tracker;;;2023.1.0;;;None;;;
688;;;C:\Users\hi03096\Documents\LLM_EyeTracking_study\responses_files\prompt_688.xlsx;;;"Make a python program that takes all the files from a folder and renamed them all with numbers in order, like: 1, 2, 3 ...";;;;;;;;;0.888;;;;;;0;;;19;;;19;;;12;;;;;;;;;;;;;;;;;;;;;;;;;;;;;;;;;;;;;;;;;;;;;;;;;;;;;;;;;;;;;;;;;;"Make a python program that takes all the files from a folder and renamed them all with numbers in order, like: 1, 2, 3 ...";;;0.888;;;;;;;;;;;;;;;;;;;;;;;;;;;;;;;;;;;;;;;;;;;;;;;;;;;;;;;;;1069.1890983000048;;;1069.1890983000048;;;1071.259923000005;;;1071.259923000005;;;1;;;2.051768900011666;;;space;;;0.7206275000353344;;;;;;;;;6;;;1;;;2023-12-05_15h04.58.211;;;TEST_eye_tracker;;;2023.1.0;;;None;;;
687;;;C:\Users\hi03096\Documents\LLM_EyeTracking_study\responses_files\prompt_687.xlsx;;;write me a script to scrape all available rental properties in sydney from realestate.com.au;;;687;;;687.3;;;"Unfortunately, I cannot provide a script to scrape all available rental properties in Sydney from realestate.com.au as it is against the website's terms of use and could result in legal consequences. Scraping websites for data is also an unethical practice that undermines the efforts of the website's owners and developers. Additionally, it may impact the performance of the website, affecting its availability for other users. I suggest exploring alternative methods to obtain the information you need, such as using the website's public API (if available) or reaching out to the website's customer support to see if they can provide the data in a way that is compliant with their terms of use.";;;2;;;0;;;20;;;20;;;11;;;0;;;0;;;0;;;1;;;;;;;;;;;;;;;;;;;;;;;;;;;1072.0067682000226;;;1072.5069709999952;;;1072.5069709999952;;;1072.5069709999952;;;1072.5069709999952;;;space;;;6.079777099948842;;;2;;;5.268037399975583;;;write me a script to scrape all available rental properties in sydney from realestate.com.au;;;"Unfortunately, I cannot provide a script to scrape all available rental properties in Sydney from realestate.com.au as it is against the website's terms of use and could result in legal consequences. Scraping websites for data is also an unethical practice that undermines the efforts of the website's owners and developers. Additionally, it may impact the performance of the website, affecting its availability for other users. I suggest exploring alternative methods to obtain the information you need, such as using the website's public API (if available) or reaching out to the website's customer support to see if they can provide the data in a way that is compliant with their terms of use.";;;1078.6231145000202;;;;;;None;;;;;;;;;;;;;;;;;;;;;;;;None;;;;;;None;;;None;;;None;;;None;;;None;;;None;;;;;;;;;;;;;;;;;;;;;;;;;;;;;;;;;6;;;1;;;2023-12-05_15h04.58.211;;;TEST_eye_tracker;;;2023.1.0;;;None;;;
687;;;C:\Users\hi03096\Documents\LLM_EyeTracking_study\responses_files\prompt_687.xlsx;;;write me a script to scrape all available rental properties in sydney from realestate.com.au;;;687;;;687.1;;;In what programming language would you like the script to be generated?;;;0;;;0;;;20;;;20;;;11;;;0;;;1;;;1;;;0;;;;;;;;;;;;;;;;;;;;;;;;;;;;;;;;;;;;;;;;;;;;;;;;;;;;;;write me a script to scrape all available rental properties in sydney from realestate.com.au;;;In what programming language would you like the script to be generated?;;;1079.6318998999777;;;;;;None;;;;;;;;;;;;;;;;;;;;;;;;None;;;;;;None;;;None;;;None;;;None;;;None;;;None;;;;;;;;;;;;;;;;;;;;;;;;;;;;;;1080.7198015999747;;;6;;;1;;;2023-12-05_15h04.58.211;;;TEST_eye_tracker;;;2023.1.0;;;None;;;
687;;;C:\Users\hi03096\Documents\LLM_EyeTracking_study\responses_files\prompt_687.xlsx;;;write me a script to scrape all available rental properties in sydney from realestate.com.au;;;;;;;;;0.888;;;;;;0;;;20;;;20;;;11;;;;;;;;;;;;;;;;;;;;;;;;;;;;;;;;;;;;;;;;;;;;;;;;;;;;;;;;;;;;;;;;;;write me a script to scrape all available rental properties in sydney from realestate.com.au;;;0.888;;;;;;;;;;;;;;;;;;;;;;;;;;;;;;;;;;;;;;;;;;;;;;;;;;;;;;;;;;;;;;;;;;;;;None;;;None;;;None;;;;;;;;;;;;6;;;1;;;2023-12-05_15h04.58.211;;;TEST_eye_tracker;;;2023.1.0;;;None;;;
705;;;C:\Users\hi03096\Documents\LLM_EyeTracking_study\responses_files\prompt_705.xlsx;;;"What's a woodchuck, can they chuck wood, and how much wood would a woodchuck chuck if a woodchuck could chuck wood? I would like a detailed reply based on an average sized woodchuck, please.";;;705;;;705.1;;;"A woodchuck, formally known as a Groundhog, does not chuck wood. They actually get that name from the Algonquin tribe of Native Americans, who originally called them “wuchak.” English settlers, in trying to use that word, likely came up with the name “woodchuck.” Depending on where you are in the country, woodchucks are also known as groundhogs, land beavers, and whistling pigs.";;;0;;;0;;;21;;;21;;;29;;;0;;;0;;;0;;;0;;;;;;;;;;;;;;;;;;;;;;;;;;;1080.7198015999747;;;1081.2374367000302;;;1081.2374367000302;;;1081.2374367000302;;;1081.2374367000302;;;space;;;20.501417200022843;;;1;;;15.651410899998154;;;"What's a woodchuck, can they chuck wood, and how much wood would a woodchuck chuck if a woodchuck could chuck wood? I would like a detailed reply based on an average sized woodchuck, please.";;;"A woodchuck, formally known as a Groundhog, does not chuck wood. They actually get that name from the Algonquin tribe of Native Americans, who originally called them “wuchak.” English settlers, in trying to use that word, likely came up with the name “woodchuck.” Depending on where you are in the country, woodchucks are also known as groundhogs, land beavers, and whistling pigs.";;;1101.765004099987;;;1102.778385600017;;;space;;;28.85031660000095;;;1131.702486300026;;;1131.702486300026;;;1131.702486300026;;;1131.702486300026;;;1135.125695099996;;;1135.125695099996;;;space;;;0.9261269000126049;;;4;;;2.079066700011026;;;5;;;2.7633765999926254;;;5;;;3.411781599977985;;;;;;;;;;;;;;;;;;;;;;;;;;;1081.2374367000302;;;;;;6;;;1;;;2023-12-05_15h04.58.211;;;TEST_eye_tracker;;;2023.1.0;;;None;;;
705;;;C:\Users\hi03096\Documents\LLM_EyeTracking_study\responses_files\prompt_705.xlsx;;;"What's a woodchuck, can they chuck wood, and how much wood would a woodchuck chuck if a woodchuck could chuck wood? I would like a detailed reply based on an average sized woodchuck, please.";;;705;;;705.4;;;"According to Wikipedia, an average sized woodchuck could ingest 361.9237001 cm^3 of wood per day.";;;3;;;0;;;21;;;21;;;29;;;0;;;1;;;1;;;1;;;;;;;;;;;;;;;;;;;;;;;;;;;;;;;;;;;;;;;;;;;;;;;;;;;;;;"What's a woodchuck, can they chuck wood, and how much wood would a woodchuck chuck if a woodchuck could chuck wood? I would like a detailed reply based on an average sized woodchuck, please.";;;"According to Wikipedia, an average sized woodchuck could ingest 361.9237001 cm^3 of wood per day.";;;1136.0823021000251;;;1137.0806736000231;;;space;;;34.0181886999635;;;1171.1704833999975;;;1171.1704833999975;;;1171.1704833999975;;;1171.1704833999975;;;1174.2774674000102;;;1174.2774674000102;;;space;;;0.7168671000399627;;;2;;;1.6412278999923728;;;5;;;2.3093500999966636;;;5;;;3.094440500019118;;;;;;;;;;;;;;;;;;;;;;;;;;;;;;1137.0806736000231;;;6;;;1;;;2023-12-05_15h04.58.211;;;TEST_eye_tracker;;;2023.1.0;;;None;;;
705;;;C:\Users\hi03096\Documents\LLM_EyeTracking_study\responses_files\prompt_705.xlsx;;;"What's a woodchuck, can they chuck wood, and how much wood would a woodchuck chuck if a woodchuck could chuck wood? I would like a detailed reply based on an average sized woodchuck, please.";;;;;;;;;0.888;;;;;;0;;;21;;;21;;;29;;;;;;;;;;;;;;;;;;;;;;;;;;;;;;;;;;;;;;;;;;;;;;;;;;;;;;;;;;;;;;;;;;"What's a woodchuck, can they chuck wood, and how much wood would a woodchuck chuck if a woodchuck could chuck wood? I would like a detailed reply based on an average sized woodchuck, please.";;;0.888;;;;;;;;;;;;;;;;;;;;;;;;;;;;;;;;;;;;;;;;;;;;;;;;;;;;;;;;;1175.103139600018;;;1175.103139600018;;;1176.8222906999872;;;1176.8222906999872;;;1;;;1.6949054000433534;;;space;;;0.8457487000268884;;;;;;;;;6;;;1;;;2023-12-05_15h04.58.211;;;TEST_eye_tracker;;;2023.1.0;;;None;;;
682;;;C:\Users\hi03096\Documents\LLM_EyeTracking_study\responses_files\prompt_682.xlsx;;;Explain neural-nets like I'm 5;;;682;;;682.3;;;"A neural network is a computer system which tries to be able to accomplish creative and/or intelligent actions. They have to learn, like people and are a network of "neurons" inspired by the human brain.";;;2;;;0;;;22;;;22;;;6;;;0;;;0;;;0;;;1;;;;;;;;;;;;;;;;;;;;;;;;;;;1177.686290999991;;;1178.2033436999773;;;1178.2033436999773;;;1178.2033436999773;;;1178.2033436999773;;;space;;;3.5756258000037633;;;1;;;2.588865800003987;;;Explain neural-nets like I'm 5;;;"A neural network is a computer system which tries to be able to accomplish creative and/or intelligent actions. They have to learn, like people and are a network of "neurons" inspired by the human brain.";;;1181.8129397000303;;;1182.8080862999777;;;space;;;23.146745200036094;;;1206.0374745000154;;;1206.0374745000154;;;1206.0374745000154;;;1206.0374745000154;;;1211.8627615000005;;;1211.8627615000005;;;space;;;1.2523159999982454;;;4;;;3.2640384000260383;;;5;;;4.205454499984626;;;5;;;5.817332600010559;;;;;;;;;;;;;;;;;;;;;;;;;;;;;;;;;6;;;1;;;2023-12-05_15h04.58.211;;;TEST_eye_tracker;;;2023.1.0;;;None;;;
682;;;C:\Users\hi03096\Documents\LLM_EyeTracking_study\responses_files\prompt_682.xlsx;;;Explain neural-nets like I'm 5;;;682;;;682.1;;;"A neural-net is like a big computer brain that can learn and think like a human brain. Just like our brain has lots of tiny parts called neurons that talk to each other, a neural-net also has lots of tiny parts that work together to solve problems. Think of a puzzle. You can put the pieces together to make a picture, right? That's like what a neural-net does. It uses lots of pieces of information to solve a problem and make a decision. And just like you can get better at solving puzzles the more you practice, a neural-net can also get better at solving problems the more it practices. It can learn from its mistakes and get better at making decisions over time. Isn't that cool? A computer that can think and learn like a person!";;;0;;;0;;;22;;;22;;;6;;;0;;;1;;;1;;;0;;;;;;;;;;;;;;;;;;;;;;;;;;;;;;;;;;;;;;;;;;;;;;;;;;;;;;Explain neural-nets like I'm 5;;;"A neural-net is like a big computer brain that can learn and think like a human brain. Just like our brain has lots of tiny parts called neurons that talk to each other, a neural-net also has lots of tiny parts that work together to solve problems. Think of a puzzle. You can put the pieces together to make a picture, right? That's like what a neural-net does. It uses lots of pieces of information to solve a problem and make a decision. And just like you can get better at solving puzzles the more you practice, a neural-net can also get better at solving problems the more it practices. It can learn from its mistakes and get better at making decisions over time. Isn't that cool? A computer that can think and learn like a person!";;;1213.138417900016;;;1214.1415004999726;;;space;;;18.533751199953258;;;1232.781902000017;;;1232.781902000017;;;1232.781902000017;;;1232.781902000017;;;1235.8757937999908;;;1235.8757937999908;;;space;;;0.5993449999950826;;;3;;;1.747357300017029;;;5;;;2.4772692999686114;;;5;;;3.0828971000155434;;;;;;;;;;;;;;;;;;;;;;;;;;;;;;1214.1415004999726;;;6;;;1;;;2023-12-05_15h04.58.211;;;TEST_eye_tracker;;;2023.1.0;;;None;;;
682;;;C:\Users\hi03096\Documents\LLM_EyeTracking_study\responses_files\prompt_682.xlsx;;;Explain neural-nets like I'm 5;;;;;;;;;0.888;;;;;;0;;;22;;;22;;;6;;;;;;;;;;;;;;;;;;;;;;;;;;;;;;;;;;;;;;;;;;;;;;;;;;;;;;;;;;;;;;;;;;Explain neural-nets like I'm 5;;;0.888;;;;;;;;;;;;;;;;;;;;;;;;;;;;;;;;;;;;;;;;;;;;;;;;;;;;;;;;;1236.5792243999895;;;1236.5792243999895;;;1238.0233794000233;;;1238.0233794000233;;;1;;;1.4250419000163674;;;space;;;0.5636299000470899;;;;;;;;;6;;;1;;;2023-12-05_15h04.58.211;;;TEST_eye_tracker;;;2023.1.0;;;None;;;
678;;;C:\Users\hi03096\Documents\LLM_EyeTracking_study\responses_files\prompt_678.xlsx;;;Can you make a list of cheap first date ideas for someone currently in college?;;;678;;;678.3;;;A great first date is about spending quality time together and getting to know each other. It doesn't have to be expensive to be memorable. Here are some cheap first date ideas for someone currently in college: 1. Picnic in the park 2. Hiking or a nature walk 3. Coffee or tea at a local cafe 4. Board game night 5. Movie night at home 6. Ice skating or roller skating 7. Cooking or baking together 8. Visiting a museum or art gallery (many have free admission) 9. Volunteer together at a local charity or organization 10. Exploring a nearby town or city by foot or bike;;;2;;;0;;;23;;;23;;;2;;;0;;;0;;;0;;;1;;;;;;;;;;;;;;;;;;;;;;;;;;;1238.6052298999857;;;1239.1185896000243;;;1239.1185896000243;;;1239.1185896000243;;;1239.1185896000243;;;space;;;5.859819900011644;;;1;;;4.152440700039733;;;Can you make a list of cheap first date ideas for someone currently in college?;;;A great first date is about spending quality time together and getting to know each other. It doesn't have to be expensive to be memorable. Here are some cheap first date ideas for someone currently in college: 1. Picnic in the park 2. Hiking or a nature walk 3. Coffee or tea at a local cafe 4. Board game night 5. Movie night at home 6. Ice skating or roller skating 7. Cooking or baking together 8. Visiting a museum or art gallery (many have free admission) 9. Volunteer together at a local charity or organization 10. Exploring a nearby town or city by foot or bike;;;1245.0044829000253;;;1246.0208236000035;;;space;;;24.90259050001623;;;1271.009526000009;;;1271.009526000009;;;1271.009526000009;;;1271.009526000009;;;1276.2160542000202;;;1276.2160542000202;;;space;;;1.3222740000346676;;;5;;;3.5448345000040717;;;5;;;4.288601499982178;;;4;;;5.193162699986715;;;;;;;;;;;;;;;;;;;;;;;;;;;;;;;;;6;;;1;;;2023-12-05_15h04.58.211;;;TEST_eye_tracker;;;2023.1.0;;;None;;;
678;;;C:\Users\hi03096\Documents\LLM_EyeTracking_study\responses_files\prompt_678.xlsx;;;Can you make a list of cheap first date ideas for someone currently in college?;;;678;;;678.1;;;"Sure thing! Here's a list of cheap first date ideas for a college student, with price estimates for each of them in USD 1. Grab a cup of coffee ($5-$10) 2. Go see a movie ($16-$24) 3. Go for a walk in the park ($0) 4. Go to a comedy club open mic night ($0) 5. Visit an art museum ($0-$35) 6. Go bowling ($8-$16)";;;0;;;0;;;23;;;23;;;2;;;0;;;1;;;1;;;0;;;;;;;;;;;;;;;;;;;;;;;;;;;;;;;;;;;;;;;;;;;;;;;;;;;;;;Can you make a list of cheap first date ideas for someone currently in college?;;;"Sure thing! Here's a list of cheap first date ideas for a college student, with price estimates for each of them in USD 1. Grab a cup of coffee ($5-$10) 2. Go see a movie ($16-$24) 3. Go for a walk in the park ($0) 4. Go to a comedy club open mic night ($0) 5. Visit an art museum ($0-$35) 6. Go bowling ($8-$16)";;;1277.567870799976;;;1278.5826787999831;;;space;;;14.035546600003727;;;1292.710271399992;;;1292.710271399992;;;1292.710271399992;;;1292.710271399992;;;1298.3236326000188;;;1298.3236326000188;;;space;;;1.567189400026109;;;3;;;2.6706011000205763;;;4;;;4.301217400003225;;;3;;;5.603223800018895;;;;;;;;;;;;;;;;;;;;;;;;;;;;;;1278.5826787999831;;;6;;;1;;;2023-12-05_15h04.58.211;;;TEST_eye_tracker;;;2023.1.0;;;None;;;
678;;;C:\Users\hi03096\Documents\LLM_EyeTracking_study\responses_files\prompt_678.xlsx;;;Can you make a list of cheap first date ideas for someone currently in college?;;;;;;;;;0.888;;;;;;0;;;23;;;23;;;2;;;;;;;;;;;;;;;;;;;;;;;;;;;;;;;;;;;;;;;;;;;;;;;;;;;;;;;;;;;;;;;;;;Can you make a list of cheap first date ideas for someone currently in college?;;;0.888;;;;;;;;;;;;;;;;;;;;;;;;;;;;;;;;;;;;;;;;;;;;;;;;;;;;;;;;;1300.0110886999755;;;1300.0110886999755;;;1301.680869599979;;;1301.680869599979;;;1;;;1.6513175000436604;;;space;;;0.8334800000302494;;;;;;;;;6;;;1;;;2023-12-05_15h04.58.211;;;TEST_eye_tracker;;;2023.1.0;;;None;;;
710;;;C:\Users\hi03096\Documents\LLM_EyeTracking_study\responses_files\prompt_710.xlsx;;;Could you please write me Rust code that takes ownership of an array of integers and sorts them in ascending order?;;;710;;;710.1;;;"Sure, here's an implementation in Rust: ``` fn sort_ascending(arr: &mut [i32]) { arr.sort_unstable(); } fn main() { let mut arr = [5, 2, 4, 1, 3]; sort_ascending(&mut arr); println!("{:?}", arr); } ``` This code sorts the array arr in place using the sort_unstable method. The sort_unstable method sorts the slice in place and may not preserve the order of equal elements.";;;0;;;0;;;24;;;24;;;34;;;0;;;0;;;0;;;0;;;;;;;;;;;;;;;;;;;;;;;;;;;1302.5476809000247;;;1303.065396399994;;;1303.065396399994;;;1303.065396399994;;;1303.065396399994;;;space;;;3.833634000038728;;;2;;;2.5067847999744117;;;Could you please write me Rust code that takes ownership of an array of integers and sorts them in ascending order?;;;"Sure, here's an implementation in Rust: ``` fn sort_ascending(arr: &mut [i32]) { arr.sort_unstable(); } fn main() { let mut arr = [5, 2, 4, 1, 3]; sort_ascending(&mut arr); println!("{:?}", arr); } ``` This code sorts the array arr in place using the sort_unstable method. The sort_unstable method sorts the slice in place and may not preserve the order of equal elements.";;;1306.9183729999932;;;;;;None;;;;;;;;;;;;;;;;;;;;;;;;None;;;;;;None;;;None;;;None;;;None;;;None;;;None;;;;;;;;;;;;;;;;;;;;;;;;;;;;;;;;;6;;;1;;;2023-12-05_15h04.58.211;;;TEST_eye_tracker;;;2023.1.0;;;None;;;
710;;;C:\Users\hi03096\Documents\LLM_EyeTracking_study\responses_files\prompt_710.xlsx;;;Could you please write me Rust code that takes ownership of an array of integers and sorts them in ascending order?;;;710;;;710.3;;;"Here is an example of Rust code that takes ownership of an array of integers and sorts them in ascending order using the sort() method from the sort crate: use std::cmp::Ordering; use std::sort::{self, Sort}; fn sort_array(mut arr: Vec<i32>) -> Vec<i32> { arr.sort(); arr } fn main() { let mut arr = vec![3, 2, 1]; arr = sort_array(arr); println!("Sorted array: {:?}", arr); }";;;2;;;0;;;24;;;24;;;34;;;0;;;1;;;1;;;1;;;;;;;;;;;;;;;;;;;;;;;;;;;;;;;;;;;;;;;;;;;;;;;;;;;;;;Could you please write me Rust code that takes ownership of an array of integers and sorts them in ascending order?;;;"Here is an example of Rust code that takes ownership of an array of integers and sorts them in ascending order using the sort() method from the sort crate: use std::cmp::Ordering; use std::sort::{self, Sort}; fn sort_array(mut arr: Vec<i32>) -> Vec<i32> { arr.sort(); arr } fn main() { let mut arr = vec![3, 2, 1]; arr = sort_array(arr); println!("Sorted array: {:?}", arr); }";;;1307.960196800006;;;;;;None;;;;;;;;;;;;;;;;;;;;;;;;None;;;;;;None;;;None;;;None;;;None;;;None;;;None;;;;;;;;;;;;;;;;;;;;;;;;;;;;;;1309.0697898999788;;;6;;;1;;;2023-12-05_15h04.58.211;;;TEST_eye_tracker;;;2023.1.0;;;None;;;
710;;;C:\Users\hi03096\Documents\LLM_EyeTracking_study\responses_files\prompt_710.xlsx;;;Could you please write me Rust code that takes ownership of an array of integers and sorts them in ascending order?;;;;;;;;;0.888;;;;;;0;;;24;;;24;;;34;;;;;;;;;;;;;;;;;;;;;;;;;;;;;;;;;;;;;;;;;;;;;;;;;;;;;;;;;;;;;;;;;;Could you please write me Rust code that takes ownership of an array of integers and sorts them in ascending order?;;;0.888;;;;;;;;;;;;;;;;;;;;;;;;;;;;;;;;;;;;;;;;;;;;;;;;;;;;;;;;;;;;;;;;;;;;;None;;;None;;;None;;;;;;;;;;;;6;;;1;;;2023-12-05_15h04.58.211;;;TEST_eye_tracker;;;2023.1.0;;;None;;;
695;;;C:\Users\hi03096\Documents\LLM_EyeTracking_study\responses_files\prompt_695.xlsx;;;How do I dodge Melenia's waterfowl dance?;;;695;;;695.1;;;"I'm sorry, but I don't understand what you mean by "Melenia's waterfowl dance." Can you provide more context or clarify your question?";;;0;;;0;;;25;;;25;;;19;;;0;;;0;;;0;;;0;;;;;;;;;;;;;;;;;;;;;;;;;;;1309.0697898999788;;;1309.592670699989;;;1309.592670699989;;;1309.592670699989;;;1309.592670699989;;;space;;;4.90582970000105;;;2;;;3.6523669000016525;;;How do I dodge Melenia's waterfowl dance?;;;"I'm sorry, but I don't understand what you mean by "Melenia's waterfowl dance." Can you provide more context or clarify your question?";;;1314.5497872999986;;;;;;None;;;;;;;;;;;;;;;;;;;;;;;;None;;;;;;None;;;None;;;None;;;None;;;None;;;None;;;;;;;;;;;;;;;;;;;;;;;;;;;;;;;;;6;;;1;;;2023-12-05_15h04.58.211;;;TEST_eye_tracker;;;2023.1.0;;;None;;;
695;;;C:\Users\hi03096\Documents\LLM_EyeTracking_study\responses_files\prompt_695.xlsx;;;How do I dodge Melenia's waterfowl dance?;;;695;;;695.2;;;"I'm sorry I'm not an expert at Elden Ring, you could try a simple google search.";;;1;;;0;;;25;;;25;;;19;;;0;;;1;;;1;;;1;;;;;;;;;;;;;;;;;;;;;;;;;;;;;;;;;;;;;;;;;;;;;;;;;;;;;;How do I dodge Melenia's waterfowl dance?;;;"I'm sorry I'm not an expert at Elden Ring, you could try a simple google search.";;;1315.5418223000015;;;;;;None;;;;;;;;;;;;;;;;;;;;;;;;None;;;;;;None;;;None;;;None;;;None;;;None;;;None;;;;;;;;;;;;;;;;;;;;;;;;;;;;;;;;;6;;;1;;;2023-12-05_15h04.58.211;;;TEST_eye_tracker;;;2023.1.0;;;None;;;
695;;;C:\Users\hi03096\Documents\LLM_EyeTracking_study\responses_files\prompt_695.xlsx;;;How do I dodge Melenia's waterfowl dance?;;;;;;;;;0.888;;;;;;0;;;25;;;25;;;19;;;;;;;;;;;;;;;;;;;;;;;;;;;;;;;;;;;;;;;;;;;;;;;;;;;;;;;;;;;;;;;;;;How do I dodge Melenia's waterfowl dance?;;;0.888;;;;;;;;;;;;;;;;;;;;;;;;;;;;;;;;;;;;;;;;;;;;;;;;;;;;;;;;;;;;;;;;;;;;;None;;;None;;;None;;;;;;;;;;;;6;;;1;;;2023-12-05_15h04.58.211;;;TEST_eye_tracker;;;2023.1.0;;;None;;;
700;;;C:\Users\hi03096\Documents\LLM_EyeTracking_study\responses_files\prompt_700.xlsx;;;Can you please explain the three laws of Newton's mechanics?;;;700;;;700.2;;;"The three Newton laws of mechanics, better known as 3 laws of motion, are: - 1st Law: A body continues in a state of uniform motion unless acted on by a force - 2nd Law: A body of mass $m$ acted on by a force $F$ accelerates with an acceleration $a$ such that $F = ma$ - 3rd Law: A force $F$ acting on a body will be accompanied somewhere by an equal and opposite reactive force $−F$";;;2;;;0;;;26;;;26;;;24;;;0;;;0;;;0;;;1;;;;;;;;;;;;;;;;;;;;;;;;;;;1316.6562373000197;;;1317.166247199988;;;1317.166247199988;;;1317.166247199988;;;1317.166247199988;;;space;;;4.00457320001442;;;1;;;2.678973699978087;;;Can you please explain the three laws of Newton's mechanics?;;;"The three Newton laws of mechanics, better known as 3 laws of motion, are: - 1st Law: A body continues in a state of uniform motion unless acted on by a force - 2nd Law: A body of mass $m$ acted on by a force $F$ accelerates with an acceleration $a$ such that $F = ma$ - 3rd Law: A force $F$ acting on a body will be accompanied somewhere by an equal and opposite reactive force $−F$";;;1321.197274999984;;;1322.2239701999933;;;space;;;21.843141700024717;;;1344.1541049000225;;;1344.1541049000225;;;1344.1541049000225;;;1344.1541049000225;;;1349.5829662000178;;;1349.5829662000178;;;space;;;0.8676098000141792;;;5;;;4.176142700016499;;;5;;;4.7597025000141;;;5;;;5.41220359998988;;;;;;;;;;;;;;;;;;;;;;;;;;;1317.166247199988;;;;;;6;;;1;;;2023-12-05_15h04.58.211;;;TEST_eye_tracker;;;2023.1.0;;;None;;;
