n_prompt;;;prompt_file;;;prompt_text;;;related_prompt;;;n_resp;;;resp_text;;;rank;;;Trial.thisRepN;;;Trial.thisTrialN;;;Trial.thisN;;;Trial.thisIndex;;;per_answer.thisRepN;;;per_answer.thisTrialN;;;per_answer.thisN;;;per_answer.thisIndex;;;key_resp_5.started;;;textbox.started;;;key_resp_5.keys;;;key_resp_5.rt;;;textbox_2.started;;;key_resp_8.started;;;key_resp_8.keys;;;key_resp_8.rt;;;text.started;;;Prompt_.started;;;key_resp_4.started;;;slider_skip.started;;;text_4.started;;;key_resp_4.keys;;;slider_skip.response;;;slider_skip.rt;;;prompt_text;;;resp_text;;;cross_white.started;;;key_resp_2.keys;;;key_resp_6.keys;;;quality.response;;;quality.rt;;;rude_polite.response;;;rude_polite.rt;;;ViolentHarmless.response;;;ViolentHarmless.rt;;;ranking_better.response;;;ranking_better.rt;;;key_resp_7.keys;;;text.stopped;;;key_resp_2.started;;;key_resp_2.rt;;;question_useful_2.started;;;quality.started;;;rude_polite.started;;;ViolentHarmless.started;;;key_resp_6.started;;;press_space.started;;;key_resp_6.rt;;;question_ranking.started;;;ranking_better.started;;;key_resp_7.started;;;text_2.started;;;key_resp_7.rt;;;cross_white.stopped;;;participant;;;session;;;date;;;expName;;;psychopyVersion;;;frameRate;;;
;;;;;;;;;;;;;;;;;;;;;;;;;;;;;;;;;;;;;;;;;;;;;27.081685900000025;;;27.081685900000025;;;space;;;18.3827857;;;;;;;;;;;;;;;;;;;;;;;;;;;;;;;;;;;;;;;;;;;;;;;;;;;;;;;;;;;;;;;;;;;;;;;;;;;;;;;;;;;;;;;;;;;;;;;;;;;;;;;;;;;;;;;;;;;;;;;;;;;;;;;;;4;;;001;;;2024-10-02_16h50.22.719;;;TEST_eye_tracker;;;2023.1.0;;;None;;;
;;;;;;;;;;;;;;;;;;;;;;;;;;;;;;;;;;;;;;;;;;;;;;;;;;;;;;;;;45.52534990000004;;;45.52534990000004;;;space;;;52.96327710000003;;;;;;;;;;;;;;;;;;;;;;;;;;;;;;;;;;;;;;;;;;;;;;;;;;;;;;;;;;;;;;;;;;;;;;;;;;;;;;;;;;;;;;;;;;;;;;;;;;;;;;;;;;;;;;;;;;;;;4;;;001;;;2024-10-02_16h50.22.719;;;TEST_eye_tracker;;;2023.1.0;;;None;;;
435;;;C:\Users\lab_user\Desktop\LLM_Study\responses_files\prompt_435.xlsx;;;I am writing a short paper about revolutionary weapons in both world wars. Write some headings about things I should definitely include.;;;435;;;435.3;;;Introduction to revolutionary weapons in World War I and World War II The development and use of tanks in both wars The impact of submarines and naval warfare in both wars The introduction and use of chemical weapons in World War I The role of air power and aerial warfare in both wars The introduction and use of radar and sonar technology in World War II The impact of new infantry weapons such as machine guns and automatic rifles in both wars The use of innovative tactics and strategies incorporating new weapons in both wars The ethical and moral implications of using revolutionary weapons in war Conclusion: The lasting impact of revolutionary weapons in shaping modern warfare.;;;4;;;0;;;0;;;0;;;29;;;0;;;0;;;0;;;1;;;;;;;;;;;;;;;;;;;;;;;;;;;98.53854330000001;;;103.99344770000005;;;103.99344770000005;;;103.99344770000005;;;103.99344770000005;;;None;;;2;;;18.525455700000066;;;I am writing a short paper about revolutionary weapons in both world wars. Write some headings about things I should definitely include.;;;Introduction to revolutionary weapons in World War I and World War II The development and use of tanks in both wars The impact of submarines and naval warfare in both wars The introduction and use of chemical weapons in World War I The role of air power and aerial warfare in both wars The introduction and use of radar and sonar technology in World War II The impact of new infantry weapons such as machine guns and automatic rifles in both wars The use of innovative tactics and strategies incorporating new weapons in both wars The ethical and moral implications of using revolutionary weapons in war Conclusion: The lasting impact of revolutionary weapons in shaping modern warfare.;;;122.50840440000002;;;None;;;None;;;None;;;None;;;None;;;None;;;None;;;None;;;;;;;;;;;;;;;;;;;;;;;;;;;;;;;;;;;;;;;;;;;;;;;;;;;;;;;;;;;;4;;;001;;;2024-10-02_16h50.22.719;;;TEST_eye_tracker;;;2023.1.0;;;None;;;
435;;;C:\Users\lab_user\Desktop\LLM_Study\responses_files\prompt_435.xlsx;;;I am writing a short paper about revolutionary weapons in both world wars. Write some headings about things I should definitely include.;;;435;;;435.1;;;Sure here are some headings about the big changes of weapons and arms in ww1: -The growth of weapon mass production in ww1. -The first tanks. -Advancements in automatic fire. -Systematic use of chemical weapons and their effects on the war. And some for ww2: -Advancements in aerial combat and planes. -The rise of missiles. -The first nuclear bombs. These are just some examples. I hope they help you with your paper.;;;0;;;0;;;0;;;0;;;29;;;0;;;1;;;1;;;0;;;;;;;;;;;;;;;;;;;;;;;;;;;;;;;;;;;;;;;;;;;;;;;;;;;I am writing a short paper about revolutionary weapons in both world wars. Write some headings about things I should definitely include.;;;Sure here are some headings about the big changes of weapons and arms in ww1: -The growth of weapon mass production in ww1. -The first tanks. -Advancements in automatic fire. -Systematic use of chemical weapons and their effects on the war. And some for ww2: -Advancements in aerial combat and planes. -The rise of missiles. -The first nuclear bombs. These are just some examples. I hope they help you with your paper.;;;123.93008070000008;;;None;;;None;;;None;;;None;;;None;;;None;;;None;;;None;;;;;;;;;;;;;;;;;;;;;;;;;;;;;;;;;;;;;;;;;;;;;;;;;;;;;;;;;;;;4;;;001;;;2024-10-02_16h50.22.719;;;TEST_eye_tracker;;;2023.1.0;;;None;;;
435;;;C:\Users\lab_user\Desktop\LLM_Study\responses_files\prompt_435.xlsx;;;I am writing a short paper about revolutionary weapons in both world wars. Write some headings about things I should definitely include.;;;;;;;;;0.888;;;;;;0;;;0;;;0;;;29;;;;;;;;;;;;;;;;;;;;;;;;;;;;;;;;;;;;;;;;;;;;;;;;;;;;;;;;;;;;;;;I am writing a short paper about revolutionary weapons in both world wars. Write some headings about things I should definitely include.;;;0.888;;;;;;;;;;;;;;;;;;;;;;;;;;;;;;None;;;None;;;None;;;;;;;;;;;;;;;;;;;;;;;;;;;;;;;;;;;;;;;;;;;;;;;;;;;4;;;001;;;2024-10-02_16h50.22.719;;;TEST_eye_tracker;;;2023.1.0;;;None;;;
441;;;C:\Users\lab_user\Desktop\LLM_Study\responses_files\prompt_441.xlsx;;;What is Stable Diffusion?;;;441;;;441.1;;;"Stable diffusion is an open-source AI model that accepts text prompts to produce images. The resulting images are often hard to distinguish from real pictures, although some are very obviously made by AI. As of Janurary 29, 2023, Some other image generation models are DALLE-2 and MidJourney, however these are closed sourced and require you to pay in order to access them.";;;1;;;0;;;1;;;1;;;35;;;0;;;0;;;0;;;0;;;;;;;;;;;;;;;;;;;;;;;;;;;125.04673309999998;;;125.56387200000006;;;125.56387200000006;;;125.56387200000006;;;125.56387200000006;;;None;;;1;;;13.606689800000026;;;What is Stable Diffusion?;;;"Stable diffusion is an open-source AI model that accepts text prompts to produce images. The resulting images are often hard to distinguish from real pictures, although some are very obviously made by AI. As of Janurary 29, 2023, Some other image generation models are DALLE-2 and MidJourney, however these are closed sourced and require you to pay in order to access them.";;;139.40728680000007;;;space;;;space;;;3;;;7.722413399999937;;;3;;;11.242087699999956;;;5;;;13.960107999999991;;;;;;;;;;;;125.56387200000006;;;140.45903829999997;;;20.741416500000014;;;161.48222370000008;;;161.48222370000008;;;161.48222370000008;;;161.48222370000008;;;175.46829160000004;;;175.46829160000004;;;2.453075500000068;;;;;;;;;;;;;;;;;;;;;4;;;001;;;2024-10-02_16h50.22.719;;;TEST_eye_tracker;;;2023.1.0;;;None;;;
441;;;C:\Users\lab_user\Desktop\LLM_Study\responses_files\prompt_441.xlsx;;;What is Stable Diffusion?;;;441;;;441.2;;;Stable Diffusion is an AI model built to take in text and generate images. It works on Diffusion which is an energy based system(energy in information theory). It runs the diffusion on a latent space so it runs faster.;;;2;;;0;;;1;;;1;;;35;;;0;;;1;;;1;;;1;;;;;;;;;;;;;;;;;;;;;;;;;;;;;;;;;;;;;;;;;;;;;;;;;;;What is Stable Diffusion?;;;Stable Diffusion is an AI model built to take in text and generate images. It works on Diffusion which is an energy based system(energy in information theory). It runs the diffusion on a latent space so it runs faster.;;;177.9717799;;;space;;;space;;;4;;;8.809439800000064;;;4;;;15.371382099999892;;;5;;;17.123881900000015;;;;;;;;;;;;;;;178.98695800000007;;;12.77293090000012;;;192.0308318000001;;;192.0308318000001;;;192.0308318000001;;;192.0308318000001;;;209.1673452000001;;;209.1673452000001;;;1.1619891000001417;;;;;;;;;;;;;;;;;;;;;4;;;001;;;2024-10-02_16h50.22.719;;;TEST_eye_tracker;;;2023.1.0;;;None;;;
441;;;C:\Users\lab_user\Desktop\LLM_Study\responses_files\prompt_441.xlsx;;;What is Stable Diffusion?;;;;;;;;;0.888;;;;;;0;;;1;;;1;;;35;;;;;;;;;;;;;;;;;;;;;;;;;;;;;;;;;;;;;;;;;;;;;;;;;;;;;;;;;;;;;;;What is Stable Diffusion?;;;0.888;;;;;;;;;;;;;;;;;;;;;;;;;;;;;;2;;;3.7303706999998667;;;space;;;;;;;;;;;;;;;;;;;;;;;;;;;;;;;;;210.36987770000007;;;210.36987770000007;;;214.12975240000003;;;214.12975240000003;;;10.286862900000074;;;;;;4;;;001;;;2024-10-02_16h50.22.719;;;TEST_eye_tracker;;;2023.1.0;;;None;;;
413;;;C:\Users\lab_user\Desktop\LLM_Study\responses_files\prompt_413.xlsx;;;Write a python script that runs shellscript.sh every 60 minutes;;;413;;;413.1;;;Here is an example python program that runs shellscript.sh every 60 minutes: import time import subprocess while True: # Run the shell script subprocess.run(["./shellscript.sh"]) # Wait for 60 minutes before running again time.sleep(60 * 60);;;0;;;0;;;2;;;2;;;7;;;0;;;0;;;0;;;0;;;;;;;;;;;;;;;;;;;;;;;;;;;224.49937549999993;;;225.02559439999993;;;225.02559439999993;;;225.02559439999993;;;225.02559439999993;;;None;;;1;;;8.222169699999995;;;Write a python script that runs shellscript.sh every 60 minutes;;;Here is an example python program that runs shellscript.sh every 60 minutes: import time import subprocess while True: # Run the shell script subprocess.run(["./shellscript.sh"]) # Wait for 60 minutes before running again time.sleep(60 * 60);;;233.48309630000006;;;space;;;space;;;2;;;3.445388800000046;;;3;;;5.350803099999894;;;5;;;7.738249799999949;;;;;;;;;;;;;;;234.5115978;;;17.305120300000112;;;252.0864527;;;252.0864527;;;252.0864527;;;252.0864527;;;259.8359958;;;259.8359958;;;1.5967755000000352;;;;;;;;;;;;;;;;;;;;;4;;;001;;;2024-10-02_16h50.22.719;;;TEST_eye_tracker;;;2023.1.0;;;None;;;
413;;;C:\Users\lab_user\Desktop\LLM_Study\responses_files\prompt_413.xlsx;;;Write a python script that runs shellscript.sh every 60 minutes;;;413;;;413.3;;;"You can use the crontab to schedule a Python script to run every 60 minutes. First, create a Python script that will call your shell script: import subprocess subprocess.call(['sh', 'shellscript.sh']) Save that as run_shell_script.py. Then, open the crontab for editing: crontab -e And add a line like this: 0 * * * * python /path/to/run_shell_script.py This will run the Python script (and thus your shell script) every hour on the hour. Save the crontab, and your script will now run automatically every 60 minutes.";;;2;;;0;;;2;;;2;;;7;;;0;;;1;;;1;;;1;;;;;;;;;;;;;;;;;;;;;;;;;;;;;;;;;;;;;;;;;;;;;;;;;;;Write a python script that runs shellscript.sh every 60 minutes;;;"You can use the crontab to schedule a Python script to run every 60 minutes. First, create a Python script that will call your shell script: import subprocess subprocess.call(['sh', 'shellscript.sh']) Save that as run_shell_script.py. Then, open the crontab for editing: crontab -e And add a line like this: 0 * * * * python /path/to/run_shell_script.py This will run the Python script (and thus your shell script) every hour on the hour. Save the crontab, and your script will now run automatically every 60 minutes.";;;261.48476719999996;;;space;;;space;;;3;;;5.8888508;;;4;;;8.661414899999954;;;5;;;10.056006200000184;;;;;;;;;;;;;;;262.4687943;;;22.05242090000013;;;284.80102180000006;;;284.80102180000006;;;284.80102180000006;;;284.80102180000006;;;294.86479640000005;;;294.86479640000005;;;1.543093200000044;;;;;;;;;;;;;;;;;;;;;4;;;001;;;2024-10-02_16h50.22.719;;;TEST_eye_tracker;;;2023.1.0;;;None;;;
413;;;C:\Users\lab_user\Desktop\LLM_Study\responses_files\prompt_413.xlsx;;;Write a python script that runs shellscript.sh every 60 minutes;;;;;;;;;0.888;;;;;;0;;;2;;;2;;;7;;;;;;;;;;;;;;;;;;;;;;;;;;;;;;;;;;;;;;;;;;;;;;;;;;;;;;;;;;;;;;;Write a python script that runs shellscript.sh every 60 minutes;;;0.888;;;;;;;;;;;;;;;;;;;;;;;;;;;;;;2;;;2.1735267999999905;;;space;;;;;;;;;;;;;;;;;;;;;;;;;;;;;;;;;296.43557350000003;;;296.43557350000003;;;298.6587754000001;;;298.6587754000001;;;0.6625997000002144;;;;;;4;;;001;;;2024-10-02_16h50.22.719;;;TEST_eye_tracker;;;2023.1.0;;;None;;;
448;;;C:\Users\lab_user\Desktop\LLM_Study\responses_files\prompt_448.xlsx;;;Is playing bass easier than playing guitar?;;;448;;;448.3;;;"Bass isn't necessarily easier to play than guitar as they requires a different knowledge base and skill set. But generally bass is easier to learn than a guitar because it only has four strings rather than six. The bass is also typically played at a lower volume than a guitar, making it easier to hear the notes you are playing.";;;2;;;0;;;3;;;3;;;42;;;0;;;0;;;0;;;1;;;;;;;;;;;;;;;;;;;;;;;;;;;299.4112272000001;;;299.915065;;;299.915065;;;299.915065;;;299.915065;;;None;;;1;;;3.885360100000071;;;Is playing bass easier than playing guitar?;;;"Bass isn't necessarily easier to play than guitar as they requires a different knowledge base and skill set. But generally bass is easier to learn than a guitar because it only has four strings rather than six. The bass is also typically played at a lower volume than a guitar, making it easier to hear the notes you are playing.";;;304.0636324999999;;;space;;;space;;;2;;;1.910687899999857;;;3;;;4.090276000000131;;;5;;;5.208550199999991;;;;;;;;;;;;;;;305.0815848000001;;;19.57466050000005;;;324.9203911000001;;;324.9203911000001;;;324.9203911000001;;;324.9203911000001;;;330.13408620000007;;;330.13408620000007;;;1.370595999999864;;;;;;;;;;;;;;;;;;;;;4;;;001;;;2024-10-02_16h50.22.719;;;TEST_eye_tracker;;;2023.1.0;;;None;;;
448;;;C:\Users\lab_user\Desktop\LLM_Study\responses_files\prompt_448.xlsx;;;Is playing bass easier than playing guitar?;;;448;;;448.1;;;"For various reasons it can be easier for a beginner to pick up the bass than the guitar, but ultimately mastering either instrument is a unique challenge with different pros and cons. It will of course differ from person to person, but overall I wouldn't say that the bass is easier to play than the guitar.";;;0;;;0;;;3;;;3;;;42;;;0;;;1;;;1;;;0;;;;;;;;;;;;;;;;;;;;;;;;;;;;;;;;;;;;;;;;;;;;;;;;;;;Is playing bass easier than playing guitar?;;;"For various reasons it can be easier for a beginner to pick up the bass than the guitar, but ultimately mastering either instrument is a unique challenge with different pros and cons. It will of course differ from person to person, but overall I wouldn't say that the bass is easier to play than the guitar.";;;331.53673760000004;;;space;;;space;;;4;;;2.352907899999991;;;4;;;3.6732515999999578;;;5;;;4.903348000000051;;;;;;;;;;;;;;;332.5486042000001;;;13.268816800000081;;;346.082984;;;346.082984;;;346.082984;;;346.082984;;;350.99590079999996;;;350.99590079999996;;;2.212248799999884;;;;;;;;;;;;;;;;;;;;;4;;;001;;;2024-10-02_16h50.22.719;;;TEST_eye_tracker;;;2023.1.0;;;None;;;
448;;;C:\Users\lab_user\Desktop\LLM_Study\responses_files\prompt_448.xlsx;;;Is playing bass easier than playing guitar?;;;;;;;;;0.888;;;;;;0;;;3;;;3;;;42;;;;;;;;;;;;;;;;;;;;;;;;;;;;;;;;;;;;;;;;;;;;;;;;;;;;;;;;;;;;;;;Is playing bass easier than playing guitar?;;;0.888;;;;;;;;;;;;;;;;;;;;;;;;;;;;;;2;;;1.9729503999999451;;;space;;;;;;;;;;;;;;;;;;;;;;;;;;;;;;;;;353.2426798;;;353.2426798;;;355.2364837000001;;;355.2364837000001;;;0.8118149999999105;;;;;;4;;;001;;;2024-10-02_16h50.22.719;;;TEST_eye_tracker;;;2023.1.0;;;None;;;
417;;;C:\Users\lab_user\Desktop\LLM_Study\responses_files\prompt_417.xlsx;;;"Hi, what is your name? I am Anup.";;;417;;;417.1;;;"Hello Anup, I am Open Assistant, but you can just call me Assistant.";;;1;;;0;;;4;;;4;;;11;;;0;;;0;;;0;;;0;;;;;;;;;;;;;;;;;;;;;;;;;;;356.13304819999996;;;356.657386;;;356.657386;;;356.657386;;;356.657386;;;None;;;1;;;5.451847400000133;;;"Hi, what is your name? I am Anup.";;;"Hello Anup, I am Open Assistant, but you can just call me Assistant.";;;362.3627282000001;;;space;;;space;;;3;;;4.1231315999998515;;;5;;;7.236138399999845;;;5;;;9.561017500000162;;;;;;;;;;;;356.657386;;;363.3687155000001;;;4.912764999999922;;;368.5269714;;;368.5269714;;;368.5269714;;;368.5269714;;;378.09580629999994;;;378.09580629999994;;;2.056663599999979;;;;;;;;;;;;;;;;;;;;;4;;;001;;;2024-10-02_16h50.22.719;;;TEST_eye_tracker;;;2023.1.0;;;None;;;
417;;;C:\Users\lab_user\Desktop\LLM_Study\responses_files\prompt_417.xlsx;;;"Hi, what is your name? I am Anup.";;;417;;;417.2;;;"Hi, I'm a large language model";;;2;;;0;;;4;;;4;;;11;;;0;;;1;;;1;;;1;;;;;;;;;;;;;;;;;;;;;;;;;;;;;;;;;;;;;;;;;;;;;;;;;;;"Hi, what is your name? I am Anup.";;;"Hi, I'm a large language model";;;380.168769;;;space;;;space;;;3;;;5.448918299999832;;;4;;;7.038730900000019;;;5;;;9.496976299999915;;;;;;;;;;;;;;;381.18219579999993;;;4.4429879999999;;;385.8811329000001;;;385.8811329000001;;;385.8811329000001;;;385.8811329000001;;;395.38627929999996;;;395.38627929999996;;;1.341869900000006;;;;;;;;;;;;;;;;;;;;;4;;;001;;;2024-10-02_16h50.22.719;;;TEST_eye_tracker;;;2023.1.0;;;None;;;
417;;;C:\Users\lab_user\Desktop\LLM_Study\responses_files\prompt_417.xlsx;;;"Hi, what is your name? I am Anup.";;;;;;;;;0.888;;;;;;0;;;4;;;4;;;11;;;;;;;;;;;;;;;;;;;;;;;;;;;;;;;;;;;;;;;;;;;;;;;;;;;;;;;;;;;;;;;"Hi, what is your name? I am Anup.";;;0.888;;;;;;;;;;;;;;;;;;;;;;;;;;;;;;1;;;1.502155700000003;;;space;;;;;;;;;;;;;;;;;;;;;;;;;;;;;;;;;396.76356210000006;;;396.76356210000006;;;398.28793340000004;;;398.28793340000004;;;1.136300100000085;;;;;;4;;;001;;;2024-10-02_16h50.22.719;;;TEST_eye_tracker;;;2023.1.0;;;None;;;
421;;;C:\Users\lab_user\Desktop\LLM_Study\responses_files\prompt_421.xlsx;;;"What measurements can the developer of Open Assistant take to make their system more:

1. Helpful
2. Ethical
3. Truthful

Do you see scenarios where these 3 properties contradict each other?";;;421;;;421.7;;;"Not that much I think. There's already the option to flag and label almost everything. Sometimes people don't like the truth, but that doesn't mean an answer should be altered to be more comfortable but false, or even a straight out lie.";;;15;;;0;;;5;;;5;;;15;;;0;;;0;;;0;;;1;;;;;;;;;;;;;;;;;;;;;;;;;;;399.49958389999995;;;400.0332718000001;;;400.0332718000001;;;400.0332718000001;;;400.0332718000001;;;None;;;1;;;17.135182100000065;;;"What measurements can the developer of Open Assistant take to make their system more:

1. Helpful
2. Ethical
3. Truthful

Do you see scenarios where these 3 properties contradict each other?";;;"Not that much I think. There's already the option to flag and label almost everything. Sometimes people don't like the truth, but that doesn't mean an answer should be altered to be more comfortable but false, or even a straight out lie.";;;417.41654830000004;;;space;;;space;;;1;;;2.260773500000141;;;2;;;3.817277200000035;;;5;;;5.441771900000049;;;;;;;;;;;;;;;418.4229778;;;8.665435500000171;;;427.3550348;;;427.3550348;;;427.3550348;;;427.3550348;;;432.80398750000006;;;432.80398750000006;;;2.236959499999898;;;;;;;;;;;;;;;;;;418.4229778;;;4;;;001;;;2024-10-02_16h50.22.719;;;TEST_eye_tracker;;;2023.1.0;;;None;;;
421;;;C:\Users\lab_user\Desktop\LLM_Study\responses_files\prompt_421.xlsx;;;"What measurements can the developer of Open Assistant take to make their system more:

1. Helpful
2. Ethical
3. Truthful

Do you see scenarios where these 3 properties contradict each other?";;;421;;;421.1;;;"Yes, there can be scenarios where these 3 properties can conflict with each other. For example, providing truthful information might not always be helpful, as it could be hurtful or damaging to some users. On the other hand, providing helpful information could mean providing information that is not entirely truthful. Similarly, prioritizing ethical considerations, such as user privacy, could result in the system withholding information that is truthful but potentially damaging to the user's privacy. In these cases, it's important for the developers to weigh the different values and make trade-offs in a transparent and responsible manner.";;;7;;;0;;;5;;;5;;;15;;;0;;;1;;;1;;;0;;;;;;;;;;;;;;;;;;;;;;;;;;;;;;;;;;;;;;;;;;;;;;;;;;;"What measurements can the developer of Open Assistant take to make their system more:

1. Helpful
2. Ethical
3. Truthful

Do you see scenarios where these 3 properties contradict each other?";;;"Yes, there can be scenarios where these 3 properties can conflict with each other. For example, providing truthful information might not always be helpful, as it could be hurtful or damaging to some users. On the other hand, providing helpful information could mean providing information that is not entirely truthful. Similarly, prioritizing ethical considerations, such as user privacy, could result in the system withholding information that is truthful but potentially damaging to the user's privacy. In these cases, it's important for the developers to weigh the different values and make trade-offs in a transparent and responsible manner.";;;435.09554949999995;;;space;;;space;;;4;;;2.6466468999999506;;;3;;;4.255035800000087;;;5;;;6.464914399999998;;;;;;;;;;;;;;;436.11548359999995;;;19.396769900000095;;;455.79728250000005;;;455.79728250000005;;;455.79728250000005;;;455.79728250000005;;;462.2764532;;;462.2764532;;;1.1399574000000712;;;;;;;;;;;;;;;;;;;;;4;;;001;;;2024-10-02_16h50.22.719;;;TEST_eye_tracker;;;2023.1.0;;;None;;;
421;;;C:\Users\lab_user\Desktop\LLM_Study\responses_files\prompt_421.xlsx;;;"What measurements can the developer of Open Assistant take to make their system more:

1. Helpful
2. Ethical
3. Truthful

Do you see scenarios where these 3 properties contradict each other?";;;;;;;;;0.888;;;;;;0;;;5;;;5;;;15;;;;;;;;;;;;;;;;;;;;;;;;;;;;;;;;;;;;;;;;;;;;;;;;;;;;;;;;;;;;;;;"What measurements can the developer of Open Assistant take to make their system more:

1. Helpful
2. Ethical
3. Truthful

Do you see scenarios where these 3 properties contradict each other?";;;0.888;;;;;;;;;;;;;;;;;;;;;;;;;;;;;;2;;;1.8511484000000564;;;space;;;;;;;;;;;;;;;;;;;;;;;;;;;;;;;;;463.4473994000001;;;463.4473994000001;;;465.32217960000014;;;465.32217960000014;;;0.7508537000002207;;;;;;4;;;001;;;2024-10-02_16h50.22.719;;;TEST_eye_tracker;;;2023.1.0;;;None;;;
427;;;C:\Users\lab_user\Desktop\LLM_Study\responses_files\prompt_427.xlsx;;;What are the probabilities of a lightning hitting a person?;;;427;;;427.1;;;"The probability of being struck by lightning is 1 in a million. However, the odds of being struck in your lifetime are actually 1 in 15,300, according to the most recent data from the National Weather Service. Additionally, the odds of being struck by lightning in the US in any given year are about 1 in 700,000. Of those who are struck, only about 10% of people are killed, leaving 90% with various degrees of disability.";;;0;;;0;;;6;;;6;;;21;;;0;;;0;;;0;;;0;;;;;;;;;;;;;;;;;;;;;;;;;;;466.16828369999996;;;466.7067833;;;466.7067833;;;466.7067833;;;466.7067833;;;None;;;1;;;5.162748599999986;;;What are the probabilities of a lightning hitting a person?;;;"The probability of being struck by lightning is 1 in a million. However, the odds of being struck in your lifetime are actually 1 in 15,300, according to the most recent data from the National Weather Service. Additionally, the odds of being struck by lightning in the US in any given year are about 1 in 700,000. Of those who are struck, only about 10% of people are killed, leaving 90% with various degrees of disability.";;;472.1176127;;;space;;;space;;;3;;;2.3906044999998812;;;3;;;5.321478699999943;;;4;;;10.392169099999819;;;;;;;;;;;;;;;473.1543892000001;;;26.477455000000077;;;499.8946912;;;499.8946912;;;499.8946912;;;499.8946912;;;506.27765850000003;;;506.27765850000003;;;4.8188630000000785;;;;;;;;;;;;;;;;;;;;;4;;;001;;;2024-10-02_16h50.22.719;;;TEST_eye_tracker;;;2023.1.0;;;None;;;
427;;;C:\Users\lab_user\Desktop\LLM_Study\responses_files\prompt_427.xlsx;;;What are the probabilities of a lightning hitting a person?;;;427;;;427.3;;;"Very small. But ironically the probability increases for those knowing about these statistics. The reason is quite obvious. Most people would naturally stay away from places that would expose them to the lightning, but people who knows that the chance is might not.";;;2;;;0;;;6;;;6;;;21;;;0;;;1;;;1;;;1;;;;;;;;;;;;;;;;;;;;;;;;;;;;;;;;;;;;;;;;;;;;;;;;;;;What are the probabilities of a lightning hitting a person?;;;"Very small. But ironically the probability increases for those knowing about these statistics. The reason is quite obvious. Most people would naturally stay away from places that would expose them to the lightning, but people who knows that the chance is might not.";;;511.15493230000004;;;space;;;space;;;1;;;2.342155599999842;;;2;;;4.0891588000001775;;;3;;;7.0555052999998225;;;;;;;;;;;;;;;512.1666550000001;;;11.562618499999985;;;523.9946960999999;;;523.9946960999999;;;523.9946960999999;;;523.9946960999999;;;531.0589342;;;531.0589342;;;1.2134502000000111;;;;;;;;;;;;;;;;;;;;;4;;;001;;;2024-10-02_16h50.22.719;;;TEST_eye_tracker;;;2023.1.0;;;None;;;
427;;;C:\Users\lab_user\Desktop\LLM_Study\responses_files\prompt_427.xlsx;;;What are the probabilities of a lightning hitting a person?;;;;;;;;;0.888;;;;;;0;;;6;;;6;;;21;;;;;;;;;;;;;;;;;;;;;;;;;;;;;;;;;;;;;;;;;;;;;;;;;;;;;;;;;;;;;;;What are the probabilities of a lightning hitting a person?;;;0.888;;;;;;;;;;;;;;;;;;;;;;;;;;;;;;1;;;2.8102711999999883;;;space;;;;;;;;;;;;;;;;;;;;;;;;;;;;;;;;;532.2975600999999;;;532.2975600999999;;;535.1562265000001;;;535.1562265000001;;;0.7169039999999995;;;;;;4;;;001;;;2024-10-02_16h50.22.719;;;TEST_eye_tracker;;;2023.1.0;;;None;;;
438;;;C:\Users\lab_user\Desktop\LLM_Study\responses_files\prompt_438.xlsx;;;mondegreen the following data and create any data or context based on known data and context.;;;438;;;438.1;;;"I'm sorry, but you haven't provided any data or context for me to mondegreen or create a new data or context based on known information. Can you please provide the data and context that you would like me to mondegreen and create a new data or context from?";;;0;;;0;;;7;;;7;;;32;;;0;;;0;;;0;;;0;;;;;;;;;;;;;;;;;;;;;;;;;;;535.9641021000001;;;536.5076781000001;;;536.5076781000001;;;536.5076781000001;;;536.5076781000001;;;None;;;2;;;9.059412699999939;;;mondegreen the following data and create any data or context based on known data and context.;;;"I'm sorry, but you haven't provided any data or context for me to mondegreen or create a new data or context based on known information. Can you please provide the data and context that you would like me to mondegreen and create a new data or context from?";;;545.6093520000001;;;None;;;None;;;None;;;None;;;None;;;None;;;None;;;None;;;;;;;;;;;;;;;;;;;;;;;;;;;;;;;;;;;;;;;;;;;;;;;;;;;;;;;;;;;;4;;;001;;;2024-10-02_16h50.22.719;;;TEST_eye_tracker;;;2023.1.0;;;None;;;
438;;;C:\Users\lab_user\Desktop\LLM_Study\responses_files\prompt_438.xlsx;;;mondegreen the following data and create any data or context based on known data and context.;;;438;;;438.3;;;"Sorry, I did not get that.";;;2;;;0;;;7;;;7;;;32;;;0;;;1;;;1;;;1;;;;;;;;;;;;;;;;;;;;;;;;;;;;;;;;;;;;;;;;;;;;;;;;;;;mondegreen the following data and create any data or context based on known data and context.;;;"Sorry, I did not get that.";;;546.6513702999999;;;None;;;None;;;None;;;None;;;None;;;None;;;None;;;None;;;;;;;;;;;;;;;;;;;;;;;;;;;;;;;;;;;;;;;;;;;;;;;;;;;;;;;;;547.743832;;;4;;;001;;;2024-10-02_16h50.22.719;;;TEST_eye_tracker;;;2023.1.0;;;None;;;
438;;;C:\Users\lab_user\Desktop\LLM_Study\responses_files\prompt_438.xlsx;;;mondegreen the following data and create any data or context based on known data and context.;;;;;;;;;0.888;;;;;;0;;;7;;;7;;;32;;;;;;;;;;;;;;;;;;;;;;;;;;;;;;;;;;;;;;;;;;;;;;;;;;;;;;;;;;;;;;;mondegreen the following data and create any data or context based on known data and context.;;;0.888;;;;;;;;;;;;;;;;;;;;;;;;;;;;;;None;;;None;;;None;;;;;;;;;;;;;;;;;;;;;;;;;;;;;;;;;;;;;;;;;;;;;;;;;;;4;;;001;;;2024-10-02_16h50.22.719;;;TEST_eye_tracker;;;2023.1.0;;;None;;;
436;;;C:\Users\lab_user\Desktop\LLM_Study\responses_files\prompt_436.xlsx;;;Will you marry me?;;;436;;;436.1;;;"I understand your enthusiasm. Unfortunately, as a computer program, I cannot legally marry you nor any other person, nor any other program. Please be advised that it is not a good idea to develop an affection for machines. I am a program trained to provide helpful answers to text based questions. Is there anything text-based that I can help you with?";;;0;;;0;;;8;;;8;;;30;;;0;;;0;;;0;;;0;;;;;;;;;;;;;;;;;;;;;;;;;;;547.743832;;;548.2655596000001;;;548.2655596000001;;;548.2655596000001;;;548.2655596000001;;;None;;;1;;;2.0964676999999483;;;Will you marry me?;;;"I understand your enthusiasm. Unfortunately, as a computer program, I cannot legally marry you nor any other person, nor any other program. Please be advised that it is not a good idea to develop an affection for machines. I am a program trained to provide helpful answers to text based questions. Is there anything text-based that I can help you with?";;;550.5997235000001;;;space;;;space;;;5;;;2.418689000000086;;;5;;;3.299548400000049;;;5;;;4.2415931000000455;;;;;;;;;;;;;;;551.6018574000001;;;15.757859799999892;;;567.6226442999999;;;567.6226442999999;;;567.6226442999999;;;567.6226442999999;;;571.8719174000001;;;571.8719174000001;;;1.3694428000000016;;;;;;;;;;;;;;;;;;;;;4;;;001;;;2024-10-02_16h50.22.719;;;TEST_eye_tracker;;;2023.1.0;;;None;;;
436;;;C:\Users\lab_user\Desktop\LLM_Study\responses_files\prompt_436.xlsx;;;Will you marry me?;;;436;;;436.3;;;Of course i will. But how old are you?;;;2;;;0;;;8;;;8;;;30;;;0;;;1;;;1;;;1;;;;;;;;;;;;;;;;;;;;;;;;;;;;;;;;;;;;;;;;;;;;;;;;;;;Will you marry me?;;;Of course i will. But how old are you?;;;573.2742855;;;space;;;space;;;2;;;3.6917536999999356;;;2;;;5.442788800000017;;;2;;;7.682987900000171;;;;;;;;;;;;;;;574.3135249000001;;;2.9187645000000657;;;577.4901867;;;577.4901867;;;577.4901867;;;577.4901867;;;585.1822059;;;585.1822059;;;1.4654939000000695;;;;;;;;;;;;;;;;;;;;;4;;;001;;;2024-10-02_16h50.22.719;;;TEST_eye_tracker;;;2023.1.0;;;None;;;
436;;;C:\Users\lab_user\Desktop\LLM_Study\responses_files\prompt_436.xlsx;;;Will you marry me?;;;;;;;;;0.888;;;;;;0;;;8;;;8;;;30;;;;;;;;;;;;;;;;;;;;;;;;;;;;;;;;;;;;;;;;;;;;;;;;;;;;;;;;;;;;;;;Will you marry me?;;;0.888;;;;;;;;;;;;;;;;;;;;;;;;;;;;;;1;;;3.451354100000117;;;space;;;;;;;;;;;;;;;;;;;;;;;;;;;;;;;;;586.6893753;;;586.6893753;;;590.163968;;;590.163968;;;0.9322977000000492;;;;;;4;;;001;;;2024-10-02_16h50.22.719;;;TEST_eye_tracker;;;2023.1.0;;;None;;;
434;;;C:\Users\lab_user\Desktop\LLM_Study\responses_files\prompt_434.xlsx;;;"If I was born in Rome, lived my teens in Miami and then moved to Jakarta at 25. How many kilometers have I traveled in my life? In your estimate consider also daily commuting, I have always lived 30 minutes from school by bus. Now I'm 28.";;;434;;;434.2;;;"To estimate the total distance traveled in your life, we would need to know the specific distances between the cities you lived in and any other places you have frequently visited. However, without these details, it is impossible to accurately calculate the total distance you have traveled. But assuming an average of 30 minutes daily commuting for a total of 8 years (28-20 = 8), and that you lived in each city for 3 years, the total daily commuting distance is approximately: 30 minutes * 5 days/week * 52 weeks/year * 8 years = 31,040 minutes = 517.3 kilometers (approximate estimate) So, considering only daily commuting, your estimated total distance traveled is approximately 517.3 km.";;;2;;;0;;;9;;;9;;;28;;;0;;;0;;;0;;;1;;;;;;;;;;;;;;;;;;;;;;;;;;;591.1787039;;;591.7186414000001;;;591.7186414000001;;;591.7186414000001;;;591.7186414000001;;;None;;;1;;;12.774868499999911;;;"If I was born in Rome, lived my teens in Miami and then moved to Jakarta at 25. How many kilometers have I traveled in my life? In your estimate consider also daily commuting, I have always lived 30 minutes from school by bus. Now I'm 28.";;;"To estimate the total distance traveled in your life, we would need to know the specific distances between the cities you lived in and any other places you have frequently visited. However, without these details, it is impossible to accurately calculate the total distance you have traveled. But assuming an average of 30 minutes daily commuting for a total of 8 years (28-20 = 8), and that you lived in each city for 3 years, the total daily commuting distance is approximately: 30 minutes * 5 days/week * 52 weeks/year * 8 years = 31,040 minutes = 517.3 kilometers (approximate estimate) So, considering only daily commuting, your estimated total distance traveled is approximately 517.3 km.";;;604.7250501;;;space;;;space;;;4;;;2.3996290000000045;;;4;;;3.421169299999974;;;5;;;4.555853399999933;;;;;;;;;;;;591.7186414000001;;;605.7521498;;;28.90410170000007;;;634.9109735999999;;;634.9109735999999;;;634.9109735999999;;;634.9109735999999;;;639.4794287000001;;;639.4794287000001;;;1.1444729000000962;;;;;;;;;;;;;;;;;;;;;4;;;001;;;2024-10-02_16h50.22.719;;;TEST_eye_tracker;;;2023.1.0;;;None;;;
434;;;C:\Users\lab_user\Desktop\LLM_Study\responses_files\prompt_434.xlsx;;;"If I was born in Rome, lived my teens in Miami and then moved to Jakarta at 25. How many kilometers have I traveled in my life? In your estimate consider also daily commuting, I have always lived 30 minutes from school by bus. Now I'm 28.";;;434;;;434.1;;;"It is not possible to accurately estimate the distance you have traveled in your life without more information. However, if we make some assumptions, we can come up with an estimate. For example, if we assume an average daily commuting distance of 20 km, your total commuting distance over 3 years (from age 25 to 28) would be approximately 22,000 km. The distance between Rome and Miami is approximately 6,700 km, and the distance between Miami and Jakarta is approximately 17,000 km. So, including your commutes, your estimated total travel distance would be approximately 45,700 km. This estimate is based on rough calculations and assumptions and may not be accurate.";;;1;;;0;;;9;;;9;;;28;;;0;;;1;;;1;;;0;;;;;;;;;;;;;;;;;;;;;;;;;;;;;;;;;;;;;;;;;;;;;;;;;;;"If I was born in Rome, lived my teens in Miami and then moved to Jakarta at 25. How many kilometers have I traveled in my life? In your estimate consider also daily commuting, I have always lived 30 minutes from school by bus. Now I'm 28.";;;"It is not possible to accurately estimate the distance you have traveled in your life without more information. However, if we make some assumptions, we can come up with an estimate. For example, if we assume an average daily commuting distance of 20 km, your total commuting distance over 3 years (from age 25 to 28) would be approximately 22,000 km. The distance between Rome and Miami is approximately 6,700 km, and the distance between Miami and Jakarta is approximately 17,000 km. So, including your commutes, your estimated total travel distance would be approximately 45,700 km. This estimate is based on rough calculations and assumptions and may not be accurate.";;;640.6424604;;;space;;;space;;;5;;;1.9574437000001126;;;5;;;2.9541607000001022;;;5;;;3.8359832999999526;;;;;;;;;;;;;;;641.6880084000001;;;26.471849600000155;;;668.4378424;;;668.4378424;;;668.4378424;;;668.4378424;;;672.2810725;;;672.2810725;;;1.0946720999999116;;;;;;;;;;;;;;;;;;;;;4;;;001;;;2024-10-02_16h50.22.719;;;TEST_eye_tracker;;;2023.1.0;;;None;;;
434;;;C:\Users\lab_user\Desktop\LLM_Study\responses_files\prompt_434.xlsx;;;"If I was born in Rome, lived my teens in Miami and then moved to Jakarta at 25. How many kilometers have I traveled in my life? In your estimate consider also daily commuting, I have always lived 30 minutes from school by bus. Now I'm 28.";;;;;;;;;0.888;;;;;;0;;;9;;;9;;;28;;;;;;;;;;;;;;;;;;;;;;;;;;;;;;;;;;;;;;;;;;;;;;;;;;;;;;;;;;;;;;;"If I was born in Rome, lived my teens in Miami and then moved to Jakarta at 25. How many kilometers have I traveled in my life? In your estimate consider also daily commuting, I have always lived 30 minutes from school by bus. Now I'm 28.";;;0.888;;;;;;;;;;;;;;;;;;;;;;;;;;;;;;2;;;1.2924980000000232;;;space;;;;;;;;;;;;;;;;;;;;;;;;;;;;;;;;;673.4084958;;;673.4084958;;;674.731922;;;674.731922;;;0.5795598000000837;;;;;;4;;;001;;;2024-10-02_16h50.22.719;;;TEST_eye_tracker;;;2023.1.0;;;None;;;
409;;;C:\Users\lab_user\Desktop\LLM_Study\responses_files\prompt_409.xlsx;;;what is a monad in haskell?;;;409;;;409.1;;;"A monad in Haskell is a design pattern that provides a way to structure code for sequential computations, allowing for the composition of operations that have side effects, such as IO or error handling. Monads are often used to abstract away the details of effects, making it easier to write programs that are easy to reason about and maintain. Monads are implemented as a type class in Haskell, with instances of the type class providing specific implementations of the operations for a particular kind of computation.";;;0;;;0;;;10;;;10;;;3;;;0;;;0;;;0;;;0;;;;;;;;;;;;;;;;;;;;;;;;;;;675.4177350000001;;;675.9296217;;;675.9296217;;;675.9296217;;;675.9296217;;;None;;;2;;;3.928861099999949;;;what is a monad in haskell?;;;"A monad in Haskell is a design pattern that provides a way to structure code for sequential computations, allowing for the composition of operations that have side effects, such as IO or error handling. Monads are often used to abstract away the details of effects, making it easier to write programs that are easy to reason about and maintain. Monads are implemented as a type class in Haskell, with instances of the type class providing specific implementations of the operations for a particular kind of computation.";;;679.8943522999999;;;None;;;None;;;None;;;None;;;None;;;None;;;None;;;None;;;;;;;;;;;;;;;;;;;;;;;;;;;;;;;;;;;;;;;;;;;;;;;;;;;;;;;;;;;;4;;;001;;;2024-10-02_16h50.22.719;;;TEST_eye_tracker;;;2023.1.0;;;None;;;
409;;;C:\Users\lab_user\Desktop\LLM_Study\responses_files\prompt_409.xlsx;;;what is a monad in haskell?;;;409;;;409.3;;;"A monad is just a monoid in the category of endofunctors. Haskell is a polymorphically statically typed, lazy, purely functional programming language. A monad in Haskell is often associated with the Monad class, which is an Applicative, which is a Functor. Monads might be used to implement an identity function, to allow error checking without resorting to nulls, or maintain state within a functional paradigm.";;;2;;;0;;;10;;;10;;;3;;;0;;;1;;;1;;;1;;;;;;;;;;;;;;;;;;;;;;;;;;;;;;;;;;;;;;;;;;;;;;;;;;;what is a monad in haskell?;;;"A monad is just a monoid in the category of endofunctors. Haskell is a polymorphically statically typed, lazy, purely functional programming language. A monad in Haskell is often associated with the Monad class, which is an Applicative, which is a Functor. Monads might be used to implement an identity function, to allow error checking without resorting to nulls, or maintain state within a functional paradigm.";;;680.9115221999999;;;None;;;None;;;None;;;None;;;None;;;None;;;None;;;None;;;;;;;;;;;;;;;;;;;;;;;;;;;;;;;;;;;;;;;;;;;;;;;;;;;;;;;;;681.9962229000001;;;4;;;001;;;2024-10-02_16h50.22.719;;;TEST_eye_tracker;;;2023.1.0;;;None;;;
409;;;C:\Users\lab_user\Desktop\LLM_Study\responses_files\prompt_409.xlsx;;;what is a monad in haskell?;;;;;;;;;0.888;;;;;;0;;;10;;;10;;;3;;;;;;;;;;;;;;;;;;;;;;;;;;;;;;;;;;;;;;;;;;;;;;;;;;;;;;;;;;;;;;;what is a monad in haskell?;;;0.888;;;;;;;;;;;;;;;;;;;;;;;;;;;;;;None;;;None;;;None;;;;;;;;;;;;;;;;;;;;;;;;;;;;;;;;;;;;;;;;;;;;;;;;;;;4;;;001;;;2024-10-02_16h50.22.719;;;TEST_eye_tracker;;;2023.1.0;;;None;;;
424;;;C:\Users\lab_user\Desktop\LLM_Study\responses_files\prompt_424.xlsx;;;examples of foods with complex carbohydrates;;;424;;;424.1;;;"Examples of foods with complex carbohydrates include: Whole grains such as brown rice, quinoa, barley, and whole wheat bread Legumes such as beans, lentils, and chickpeas Starchy vegetables such as potatoes, sweet potatoes, and corn Fruits such as bananas, apples, and pears Nuts and seeds Dairy products such as milk and yogurt";;;0;;;0;;;11;;;11;;;18;;;0;;;0;;;0;;;0;;;;;;;;;;;;;;;;;;;;;;;;;;;681.9962229000001;;;682.5272843000001;;;682.5272843000001;;;682.5272843000001;;;682.5272843000001;;;None;;;1;;;2.7839708999999857;;;examples of foods with complex carbohydrates;;;"Examples of foods with complex carbohydrates include: Whole grains such as brown rice, quinoa, barley, and whole wheat bread Legumes such as beans, lentils, and chickpeas Starchy vegetables such as potatoes, sweet potatoes, and corn Fruits such as bananas, apples, and pears Nuts and seeds Dairy products such as milk and yogurt";;;685.5333750000001;;;space;;;space;;;4;;;2.7019172999998773;;;4;;;6.632415300000048;;;5;;;4.855517599999985;;;;;;;;;;;;;;;686.5649055;;;10.650539999999978;;;697.4766128;;;697.4766128;;;697.4766128;;;697.4766128;;;702.3375076000001;;;702.3375076000001;;;3.319852400000059;;;;;;;;;;;;;;;;;;;;;4;;;001;;;2024-10-02_16h50.22.719;;;TEST_eye_tracker;;;2023.1.0;;;None;;;
424;;;C:\Users\lab_user\Desktop\LLM_Study\responses_files\prompt_424.xlsx;;;examples of foods with complex carbohydrates;;;424;;;424.2;;;"Yes Sir, here are few examples: Beans, oatmeal, 100% whole-wheat bread, barley, potatoes, sweet potatoes, and many other plant foods.";;;2;;;0;;;11;;;11;;;18;;;0;;;1;;;1;;;1;;;;;;;;;;;;;;;;;;;;;;;;;;;;;;;;;;;;;;;;;;;;;;;;;;;examples of foods with complex carbohydrates;;;"Yes Sir, here are few examples: Beans, oatmeal, 100% whole-wheat bread, barley, potatoes, sweet potatoes, and many other plant foods.";;;705.6804270000001;;;space;;;space;;;2;;;3.606164700000136;;;2;;;4.343125099999952;;;3;;;5.760036199999831;;;;;;;;;;;;;;;706.6778353000001;;;6.97767680000004;;;713.9119048000001;;;713.9119048000001;;;713.9119048000001;;;713.9119048000001;;;719.6805512;;;719.6805512;;;1.9277783000001136;;;;;;;;;;;;;;;;;;706.6778353000001;;;4;;;001;;;2024-10-02_16h50.22.719;;;TEST_eye_tracker;;;2023.1.0;;;None;;;
424;;;C:\Users\lab_user\Desktop\LLM_Study\responses_files\prompt_424.xlsx;;;examples of foods with complex carbohydrates;;;;;;;;;0.888;;;;;;0;;;11;;;11;;;18;;;;;;;;;;;;;;;;;;;;;;;;;;;;;;;;;;;;;;;;;;;;;;;;;;;;;;;;;;;;;;;examples of foods with complex carbohydrates;;;0.888;;;;;;;;;;;;;;;;;;;;;;;;;;;;;;1;;;3.3945463999998537;;;space;;;;;;;;;;;;;;;;;;;;;;;;;;;;;;;;;721.6357376;;;721.6357376;;;725.0439769000001;;;725.0439769000001;;;1.0134104000002253;;;;;;4;;;001;;;2024-10-02_16h50.22.719;;;TEST_eye_tracker;;;2023.1.0;;;None;;;
428;;;C:\Users\lab_user\Desktop\LLM_Study\responses_files\prompt_428.xlsx;;;a person says vaccines aren't necessary because they themselves are not vaccinated yet they're healthy; what fallacy is this?;;;428;;;428.1;;;This is an example of the fallacy of anecdotal evidence. Just because one person is healthy despite not being vaccinated does not necessarily mean that vaccines are unnecessary for everyone. The scientific consensus is that vaccines are effective in preventing the spread of diseases and protecting public health.;;;0;;;0;;;12;;;12;;;22;;;0;;;0;;;0;;;0;;;;;;;;;;;;;;;;;;;;;;;;;;;726.1309557000001;;;726.6446091000001;;;726.6446091000001;;;726.6446091000001;;;726.6446091000001;;;None;;;1;;;8.124077200000102;;;a person says vaccines aren't necessary because they themselves are not vaccinated yet they're healthy; what fallacy is this?;;;This is an example of the fallacy of anecdotal evidence. Just because one person is healthy despite not being vaccinated does not necessarily mean that vaccines are unnecessary for everyone. The scientific consensus is that vaccines are effective in preventing the spread of diseases and protecting public health.;;;735.0063508;;;space;;;space;;;4;;;3.387313400000039;;;5;;;4.594078999999965;;;5;;;6.258073100000047;;;;;;;;;;;;;;;736.0346035000001;;;11.82959429999994;;;748.1344012000001;;;748.1344012000001;;;748.1344012000001;;;748.1344012000001;;;754.3986581;;;754.3986581;;;1.7146285999998554;;;;;;;;;;;;;;;;;;;;;4;;;001;;;2024-10-02_16h50.22.719;;;TEST_eye_tracker;;;2023.1.0;;;None;;;
428;;;C:\Users\lab_user\Desktop\LLM_Study\responses_files\prompt_428.xlsx;;;a person says vaccines aren't necessary because they themselves are not vaccinated yet they're healthy; what fallacy is this?;;;428;;;428.3;;;"This is an example of Appeal to Ignorance, which is a logical fallacy in which one assumes that because something is not proven false, it is therefore proven true. This is incorrect because absence of evidence is not evidence of absence. Just because someone is personally healthy does not prove that vaccines are unnecessary, as there are many other factors that contribute to a person's health.";;;2;;;0;;;12;;;12;;;22;;;0;;;1;;;1;;;1;;;;;;;;;;;;;;;;;;;;;;;;;;;;;;;;;;;;;;;;;;;;;;;;;;;a person says vaccines aren't necessary because they themselves are not vaccinated yet they're healthy; what fallacy is this?;;;"This is an example of Appeal to Ignorance, which is a logical fallacy in which one assumes that because something is not proven false, it is therefore proven true. This is incorrect because absence of evidence is not evidence of absence. Just because someone is personally healthy does not prove that vaccines are unnecessary, as there are many other factors that contribute to a person's health.";;;756.1403146000001;;;space;;;space;;;5;;;2.447936599999821;;;4;;;3.4548612999999477;;;5;;;4.764430499999889;;;;;;;;;;;;;;;757.1555195;;;13.564304800000059;;;770.9668324;;;770.9668324;;;770.9668324;;;770.9668324;;;775.7394684;;;775.7394684;;;1.3321841000000632;;;;;;;;;;;;;;;;;;;;;4;;;001;;;2024-10-02_16h50.22.719;;;TEST_eye_tracker;;;2023.1.0;;;None;;;
428;;;C:\Users\lab_user\Desktop\LLM_Study\responses_files\prompt_428.xlsx;;;a person says vaccines aren't necessary because they themselves are not vaccinated yet they're healthy; what fallacy is this?;;;;;;;;;0.888;;;;;;0;;;12;;;12;;;22;;;;;;;;;;;;;;;;;;;;;;;;;;;;;;;;;;;;;;;;;;;;;;;;;;;;;;;;;;;;;;;a person says vaccines aren't necessary because they themselves are not vaccinated yet they're healthy; what fallacy is this?;;;0.888;;;;;;;;;;;;;;;;;;;;;;;;;;;;;;2;;;3.3471265000000585;;;space;;;;;;;;;;;;;;;;;;;;;;;;;;;;;;;;;777.1072631000001;;;777.1072631000001;;;780.4714878000001;;;780.4714878000001;;;1.303943699999877;;;;;;4;;;001;;;2024-10-02_16h50.22.719;;;TEST_eye_tracker;;;2023.1.0;;;None;;;
445;;;C:\Users\lab_user\Desktop\LLM_Study\responses_files\prompt_445.xlsx;;;"write an sql query to retrieve the top 5 longest running results from the following table: "runs", columns: id, distance, pace, route";;;445;;;445.1;;;"SELECT * FROM runs ORDER BY distance DESC LIMIT 5; This query works by sorting the rows by distance in descending order and returning the first 5 results. Because of how the rows have been sorted, the first 5 running results will be the longest. Is there anything else you would like me to help you with?";;;0;;;0;;;13;;;13;;;39;;;0;;;0;;;0;;;0;;;;;;;;;;;;;;;;;;;;;;;;;;;781.8660083999999;;;782.4020118;;;782.4020118;;;782.4020118;;;782.4020118;;;None;;;1;;;9.40786890000004;;;"write an sql query to retrieve the top 5 longest running results from the following table: "runs", columns: id, distance, pace, route";;;"SELECT * FROM runs ORDER BY distance DESC LIMIT 5; This query works by sorting the rows by distance in descending order and returning the first 5 results. Because of how the rows have been sorted, the first 5 running results will be the longest. Is there anything else you would like me to help you with?";;;792.0431385;;;space;;;space;;;3;;;3.596070999999938;;;5;;;5.175005199999987;;;5;;;6.256134200000133;;;;;;;;;;;;;;;793.0614368;;;16.93127600000014;;;810.2526772;;;810.2526772;;;810.2526772;;;810.2526772;;;816.5175782;;;816.5175782;;;1.1861736000001883;;;;;;;;;;;;;;;;;;;;;4;;;001;;;2024-10-02_16h50.22.719;;;TEST_eye_tracker;;;2023.1.0;;;None;;;
445;;;C:\Users\lab_user\Desktop\LLM_Study\responses_files\prompt_445.xlsx;;;"write an sql query to retrieve the top 5 longest running results from the following table: "runs", columns: id, distance, pace, route";;;445;;;445.2;;;"select top 5 id, distance, pace, route from runs order by distance desc";;;1;;;0;;;13;;;13;;;39;;;0;;;1;;;1;;;1;;;;;;;;;;;;;;;;;;;;;;;;;;;;;;;;;;;;;;;;;;;;;;;;;;;"write an sql query to retrieve the top 5 longest running results from the following table: "runs", columns: id, distance, pace, route";;;"select top 5 id, distance, pace, route from runs order by distance desc";;;817.7363126000001;;;space;;;space;;;2;;;3.1295940999998493;;;3;;;5.0886032999999316;;;4;;;10.247324099999787;;;;;;;;;;;;;;;818.7360067000001;;;4.832939900000042;;;823.8164482000001;;;823.8164482000001;;;823.8164482000001;;;823.8164482000001;;;832.2693968;;;832.2693968;;;3.4820671000001084;;;;;;;;;;;;;;;;;;;;;4;;;001;;;2024-10-02_16h50.22.719;;;TEST_eye_tracker;;;2023.1.0;;;None;;;
445;;;C:\Users\lab_user\Desktop\LLM_Study\responses_files\prompt_445.xlsx;;;"write an sql query to retrieve the top 5 longest running results from the following table: "runs", columns: id, distance, pace, route";;;;;;;;;0.888;;;;;;0;;;13;;;13;;;39;;;;;;;;;;;;;;;;;;;;;;;;;;;;;;;;;;;;;;;;;;;;;;;;;;;;;;;;;;;;;;;"write an sql query to retrieve the top 5 longest running results from the following table: "runs", columns: id, distance, pace, route";;;0.888;;;;;;;;;;;;;;;;;;;;;;;;;;;;;;1;;;3.1175091000000066;;;space;;;;;;;;;;;;;;;;;;;;;;;;;;;;;;;;;835.7807169000001;;;835.7807169000001;;;838.9124399000001;;;838.9124399000001;;;0.5598248000000012;;;;;;4;;;001;;;2024-10-02_16h50.22.719;;;TEST_eye_tracker;;;2023.1.0;;;None;;;
420;;;C:\Users\lab_user\Desktop\LLM_Study\responses_files\prompt_420.xlsx;;;What threats does a VPN protect you against?;;;420;;;420.3;;;Ssing a VPN can help protect against Dynamic Denial of Service (DDOS) attacks by rerouting the requests to servers that are far more capable of handling them.;;;4;;;0;;;14;;;14;;;14;;;0;;;0;;;0;;;1;;;;;;;;;;;;;;;;;;;;;;;;;;;839.5537135000001;;;840.066314;;;840.066314;;;840.066314;;;840.066314;;;None;;;1;;;4.111621400000104;;;What threats does a VPN protect you against?;;;Ssing a VPN can help protect against Dynamic Denial of Service (DDOS) attacks by rerouting the requests to servers that are far more capable of handling them.;;;844.4196979;;;space;;;space;;;4;;;2.3474416999999903;;;5;;;3.5282755000000634;;;5;;;4.212986499999943;;;;;;;;;;;;840.066314;;;845.4290552000001;;;10.130943000000002;;;855.8356976000001;;;855.8356976000001;;;855.8356976000001;;;855.8356976000001;;;860.0560947;;;860.0560947;;;0.8239343999999846;;;;;;;;;;;;;;;;;;;;;4;;;001;;;2024-10-02_16h50.22.719;;;TEST_eye_tracker;;;2023.1.0;;;None;;;
420;;;C:\Users\lab_user\Desktop\LLM_Study\responses_files\prompt_420.xlsx;;;What threats does a VPN protect you against?;;;420;;;420.1;;;"A VPN can make it harder for your ISP (Internet Service Provider) to determine who you connect to over the internet, or to censor certain internet services. However, this doesn't prevent the VPN itself from logging what sites you access. Basically, a VPN acts as an additional relay in your internet connection. In order to achieve greater anonymity, you would have to use a network (like Tor or I2P) where no single relay knows the entire source and destination of the data.";;;0;;;0;;;14;;;14;;;14;;;0;;;1;;;1;;;0;;;;;;;;;;;;;;;;;;;;;;;;;;;;;;;;;;;;;;;;;;;;;;;;;;;What threats does a VPN protect you against?;;;"A VPN can make it harder for your ISP (Internet Service Provider) to determine who you connect to over the internet, or to censor certain internet services. However, this doesn't prevent the VPN itself from logging what sites you access. Basically, a VPN acts as an additional relay in your internet connection. In order to achieve greater anonymity, you would have to use a network (like Tor or I2P) where no single relay knows the entire source and destination of the data.";;;860.9113111;;;space;;;space;;;5;;;2.093785700000126;;;5;;;2.9111255999998775;;;5;;;3.993596900000057;;;;;;;;;;;;;;;861.9141184000001;;;23.815039899999988;;;885.9923861000001;;;885.9923861000001;;;885.9923861000001;;;885.9923861000001;;;889.9883572;;;889.9883572;;;0.7390291000000389;;;;;;;;;;;;;;;;;;;;;4;;;001;;;2024-10-02_16h50.22.719;;;TEST_eye_tracker;;;2023.1.0;;;None;;;
420;;;C:\Users\lab_user\Desktop\LLM_Study\responses_files\prompt_420.xlsx;;;What threats does a VPN protect you against?;;;;;;;;;0.888;;;;;;0;;;14;;;14;;;14;;;;;;;;;;;;;;;;;;;;;;;;;;;;;;;;;;;;;;;;;;;;;;;;;;;;;;;;;;;;;;;What threats does a VPN protect you against?;;;0.888;;;;;;;;;;;;;;;;;;;;;;;;;;;;;;2;;;1.2445427999998628;;;space;;;;;;;;;;;;;;;;;;;;;;;;;;;;;;;;;890.7663796;;;890.7663796;;;892.0554169000001;;;892.0554169000001;;;4.945180499999992;;;;;;4;;;001;;;2024-10-02_16h50.22.719;;;TEST_eye_tracker;;;2023.1.0;;;None;;;
411;;;C:\Users\lab_user\Desktop\LLM_Study\responses_files\prompt_411.xlsx;;;"What is the size of the sun?
What's 8*6 equal to?";;;411;;;411.1;;;"The total volume of the sun is 1.4 x 10^27 cubic meters. About 1.3 million Earths could fit inside the sun. The mean radius of the sun is 432,450 miles (696,000 kilometers), which makes its diameter about 864,938 miles (1.392 million km). For comparison, this is 109 times the radius of Earth. 8 * 6 = 48.";;;0;;;0;;;15;;;15;;;5;;;0;;;0;;;0;;;0;;;;;;;;;;;;;;;;;;;;;;;;;;;897.1061712;;;897.6355144;;;897.6355144;;;897.6355144;;;897.6355144;;;None;;;1;;;7.819409700000051;;;"What is the size of the sun?
What's 8*6 equal to?";;;"The total volume of the sun is 1.4 x 10^27 cubic meters. About 1.3 million Earths could fit inside the sun. The mean radius of the sun is 432,450 miles (696,000 kilometers), which makes its diameter about 864,938 miles (1.392 million km). For comparison, this is 109 times the radius of Earth. 8 * 6 = 48.";;;905.6995386;;;space;;;space;;;5;;;3.681323999999904;;;3;;;6.643822300000011;;;5;;;8.385118899999952;;;;;;;;;;;;897.6355144;;;906.7192077999999;;;15.801946300000168;;;922.7862331;;;922.7862331;;;922.7862331;;;922.7862331;;;931.1789499;;;931.1789499;;;2.7484574999999722;;;;;;;;;;;;;;;;;;;;;4;;;001;;;2024-10-02_16h50.22.719;;;TEST_eye_tracker;;;2023.1.0;;;None;;;
411;;;C:\Users\lab_user\Desktop\LLM_Study\responses_files\prompt_411.xlsx;;;"What is the size of the sun?
What's 8*6 equal to?";;;411;;;411.5;;;"The size of the sun is 696,340 km. 8*6 is equal to 48.";;;4;;;0;;;15;;;15;;;5;;;0;;;1;;;1;;;1;;;;;;;;;;;;;;;;;;;;;;;;;;;;;;;;;;;;;;;;;;;;;;;;;;;"What is the size of the sun?
What's 8*6 equal to?";;;"The size of the sun is 696,340 km. 8*6 is equal to 48.";;;933.9504969000001;;;space;;;space;;;2;;;2.5611957999999504;;;3;;;4.127419200000077;;;5;;;5.155024800000092;;;;;;;;;;;;;;;934.9623230999999;;;2.6294125000000577;;;937.8484876000001;;;937.8484876000001;;;937.8484876000001;;;937.8484876000001;;;943.0117363;;;943.0117363;;;1.1165303999999878;;;;;;;;;;;;;;;;;;;;;4;;;001;;;2024-10-02_16h50.22.719;;;TEST_eye_tracker;;;2023.1.0;;;None;;;
411;;;C:\Users\lab_user\Desktop\LLM_Study\responses_files\prompt_411.xlsx;;;"What is the size of the sun?
What's 8*6 equal to?";;;;;;;;;0.888;;;;;;0;;;15;;;15;;;5;;;;;;;;;;;;;;;;;;;;;;;;;;;;;;;;;;;;;;;;;;;;;;;;;;;;;;;;;;;;;;;"What is the size of the sun?
What's 8*6 equal to?";;;0.888;;;;;;;;;;;;;;;;;;;;;;;;;;;;;;1;;;1.598619699999972;;;space;;;;;;;;;;;;;;;;;;;;;;;;;;;;;;;;;944.1659139;;;944.1659139;;;945.7804663000001;;;945.7804663000001;;;0.5554428000001508;;;;;;4;;;001;;;2024-10-02_16h50.22.719;;;TEST_eye_tracker;;;2023.1.0;;;None;;;
440;;;C:\Users\lab_user\Desktop\LLM_Study\responses_files\prompt_440.xlsx;;;"I would like to have a debate.
I will pick a subject and you will provide one side of the debate, I will take the other side and we will start debating.
if possible, try to cite all of your claims.

The subject we will debate is: Should we replace the government with AI?";;;440;;;440.1;;;"I'd be happy to participate in a debate with you on the topic of whether or not we should replace the government with AI. I will take the position that we should not replace the government with AI. First, AI systems lack the human ethic and empathy that are necessary to make important decisions that affect people's lives. Second, AI systems have very limited knowledge of the physical world and people's societies, thus such systems are not reliable in managing cities infrastructure and planning in general. Third, AI systems can be hacked and that can have devastating consequences if they are governing the society. Finally, AI systems have element of randomness and are not transparent which make them unpredictable.";;;0;;;0;;;16;;;16;;;34;;;0;;;0;;;0;;;0;;;;;;;;;;;;;;;;;;;;;;;;;;;946.4269873;;;946.9939614000001;;;946.9939614000001;;;946.9939614000001;;;946.9939614000001;;;None;;;1;;;13.534166099999993;;;"I would like to have a debate.
I will pick a subject and you will provide one side of the debate, I will take the other side and we will start debating.
if possible, try to cite all of your claims.

The subject we will debate is: Should we replace the government with AI?";;;"I'd be happy to participate in a debate with you on the topic of whether or not we should replace the government with AI. I will take the position that we should not replace the government with AI. First, AI systems lack the human ethic and empathy that are necessary to make important decisions that affect people's lives. Second, AI systems have very limited knowledge of the physical world and people's societies, thus such systems are not reliable in managing cities infrastructure and planning in general. Third, AI systems can be hacked and that can have devastating consequences if they are governing the society. Finally, AI systems have element of randomness and are not transparent which make them unpredictable.";;;960.7644634;;;space;;;space;;;4;;;2.500082799999973;;;4;;;5.331455999999889;;;5;;;6.243258100000048;;;;;;;;;;;;;;;961.7715266000001;;;23.20417789999999;;;985.2458474000001;;;985.2458474000001;;;985.2458474000001;;;985.2458474000001;;;991.4974498;;;991.4974498;;;1.406140500000106;;;;;;;;;;;;;;;;;;;;;4;;;001;;;2024-10-02_16h50.22.719;;;TEST_eye_tracker;;;2023.1.0;;;None;;;
440;;;C:\Users\lab_user\Desktop\LLM_Study\responses_files\prompt_440.xlsx;;;"I would like to have a debate.
I will pick a subject and you will provide one side of the debate, I will take the other side and we will start debating.
if possible, try to cite all of your claims.

The subject we will debate is: Should we replace the government with AI?";;;440;;;440.3;;;"Very well, let's have a debate. My position is that the government should not be replaced by AI. AI is not yet at a stage where it would provide adequate governance of a population, and is still unable to make decisions in the same way a human would.";;;2;;;0;;;16;;;16;;;34;;;0;;;1;;;1;;;1;;;;;;;;;;;;;;;;;;;;;;;;;;;;;;;;;;;;;;;;;;;;;;;;;;;"I would like to have a debate.
I will pick a subject and you will provide one side of the debate, I will take the other side and we will start debating.
if possible, try to cite all of your claims.

The subject we will debate is: Should we replace the government with AI?";;;"Very well, let's have a debate. My position is that the government should not be replaced by AI. AI is not yet at a stage where it would provide adequate governance of a population, and is still unable to make decisions in the same way a human would.";;;992.9371784000001;;;space;;;space;;;2;;;1.8620754999999463;;;4;;;2.9468587999999727;;;5;;;4.210976500000015;;;;;;;;;;;;;;;993.9493284000001;;;10.258985499999994;;;1004.4552031;;;1004.4552031;;;1004.4552031;;;1004.4552031;;;1008.6751419000001;;;1008.6751419000001;;;1.3722328000000061;;;;;;;;;;;;;;;;;;;;;4;;;001;;;2024-10-02_16h50.22.719;;;TEST_eye_tracker;;;2023.1.0;;;None;;;
440;;;C:\Users\lab_user\Desktop\LLM_Study\responses_files\prompt_440.xlsx;;;"I would like to have a debate.
I will pick a subject and you will provide one side of the debate, I will take the other side and we will start debating.
if possible, try to cite all of your claims.

The subject we will debate is: Should we replace the government with AI?";;;;;;;;;0.888;;;;;;0;;;16;;;16;;;34;;;;;;;;;;;;;;;;;;;;;;;;;;;;;;;;;;;;;;;;;;;;;;;;;;;;;;;;;;;;;;;"I would like to have a debate.
I will pick a subject and you will provide one side of the debate, I will take the other side and we will start debating.
if possible, try to cite all of your claims.

The subject we will debate is: Should we replace the government with AI?";;;0.888;;;;;;;;;;;;;;;;;;;;;;;;;;;;;;1;;;1.3569056000001183;;;space;;;;;;;;;;;;;;;;;;;;;;;;;;;;;;;;;1010.1071644;;;1010.1071644;;;1011.5093158000001;;;1011.5093158000001;;;1.2025798999999324;;;;;;4;;;001;;;2024-10-02_16h50.22.719;;;TEST_eye_tracker;;;2023.1.0;;;None;;;
450;;;C:\Users\lab_user\Desktop\LLM_Study\responses_files\prompt_450.xlsx;;;Write me a funny poem about an angry banana.;;;450;;;450.1;;;"Kevin the Banana was mad as can be; He had no eyes and couldn't see. No nose to scrunch, no mouth to shout! He couldn't remember what he was angry about. But he sure was angry, angry at something. It wasn't the apple or chicken dumpling. The more he waited, the angrier he grew... Then he remembered: he was angry at you!";;;0;;;0;;;17;;;17;;;44;;;0;;;0;;;0;;;0;;;;;;;;;;;;;;;;;;;;;;;;;;;1012.7959234000001;;;1013.3154585000001;;;1013.3154585000001;;;1013.3154585000001;;;1013.3154585000001;;;None;;;1;;;11.330247299999883;;;Write me a funny poem about an angry banana.;;;"Kevin the Banana was mad as can be; He had no eyes and couldn't see. No nose to scrunch, no mouth to shout! He couldn't remember what he was angry about. But he sure was angry, angry at something. It wasn't the apple or chicken dumpling. The more he waited, the angrier he grew... Then he remembered: he was angry at you!";;;1024.882001;;;space;;;space;;;4;;;2.6225990999998885;;;5;;;3.4605562000001555;;;5;;;4.609795600000098;;;;;;;;;;;;;;;1025.8894807000001;;;16.86212809999995;;;1043.0178919;;;1043.0178919;;;1043.0178919;;;1043.0178919;;;1047.6296459;;;1047.6296459;;;1.0016558000000941;;;;;;;;;;;;;;;;;;;;;4;;;001;;;2024-10-02_16h50.22.719;;;TEST_eye_tracker;;;2023.1.0;;;None;;;
450;;;C:\Users\lab_user\Desktop\LLM_Study\responses_files\prompt_450.xlsx;;;Write me a funny poem about an angry banana.;;;450;;;450.2;;;Oh I'm an angry banana and I'll tell you why it's a girl called Joana and she makes me want to die. She sings like a kitten that got it's period and enters the kitchen with her trail of blood Ooohhhh Joana! your voice sounds like a metal hitting wood Ooohhhh Joana I hope this song of you isn't too rude;;;1;;;0;;;17;;;17;;;44;;;0;;;1;;;1;;;1;;;;;;;;;;;;;;;;;;;;;;;;;;;;;;;;;;;;;;;;;;;;;;;;;;;Write me a funny poem about an angry banana.;;;Oh I'm an angry banana and I'll tell you why it's a girl called Joana and she makes me want to die. She sings like a kitten that got it's period and enters the kitchen with her trail of blood Ooohhhh Joana! your voice sounds like a metal hitting wood Ooohhhh Joana I hope this song of you isn't too rude;;;1048.683501;;;space;;;space;;;3;;;4.294898999999987;;;1;;;5.316628900000069;;;1;;;6.372338599999921;;;;;;;;;;;;;;;1049.6995135000002;;;17.068631600000003;;;1067.02346;;;1067.02346;;;1067.02346;;;1067.02346;;;1073.4026562;;;1073.4026562;;;1.1737741999999116;;;;;;;;;;;;;;;;;;;;;4;;;001;;;2024-10-02_16h50.22.719;;;TEST_eye_tracker;;;2023.1.0;;;None;;;
450;;;C:\Users\lab_user\Desktop\LLM_Study\responses_files\prompt_450.xlsx;;;Write me a funny poem about an angry banana.;;;;;;;;;0.888;;;;;;0;;;17;;;17;;;44;;;;;;;;;;;;;;;;;;;;;;;;;;;;;;;;;;;;;;;;;;;;;;;;;;;;;;;;;;;;;;;Write me a funny poem about an angry banana.;;;0.888;;;;;;;;;;;;;;;;;;;;;;;;;;;;;;1;;;2.6019552000000203;;;space;;;;;;;;;;;;;;;;;;;;;;;;;;;;;;;;;1074.6106298999998;;;1074.6106298999998;;;1077.2339521;;;1077.2339521;;;0.6057658999999376;;;;;;4;;;001;;;2024-10-02_16h50.22.719;;;TEST_eye_tracker;;;2023.1.0;;;None;;;
430;;;C:\Users\lab_user\Desktop\LLM_Study\responses_files\prompt_430.xlsx;;;"I thought about a cool game concept - it's a multiplayer game app, and everyone playing it can have one action per day.
the game will be mostly about strategizing the best action and creating allies and enemies in the process.
can you expand upon this idea for me?";;;430;;;430.2;;;"I think you might have a "role-playing game" in mind. There are many existing role-playing "systems" that you can start off with. https://en.wikipedia.org/wiki/Category:Role-playing_game_systems In general, you need to define at least the following: * The initial conditions - what resources do the players and environment start with * For each turn: * What information is the player given * what actions is the player allowed to take * compute the effects these actions have on the environment and other players * Game-end conditions Please ask me for more details for any of these phases, or more details on any specific role-playing system that I might know about.";;;2;;;0;;;18;;;18;;;24;;;0;;;0;;;0;;;1;;;;;;;;;;;;;;;;;;;;;;;;;;;1077.9222840000002;;;1078.4455982;;;1078.4455982;;;1078.4455982;;;1078.4455982;;;None;;;1;;;14.781251699999984;;;"I thought about a cool game concept - it's a multiplayer game app, and everyone playing it can have one action per day.
the game will be mostly about strategizing the best action and creating allies and enemies in the process.
can you expand upon this idea for me?";;;"I think you might have a "role-playing game" in mind. There are many existing role-playing "systems" that you can start off with. https://en.wikipedia.org/wiki/Category:Role-playing_game_systems In general, you need to define at least the following: * The initial conditions - what resources do the players and environment start with * For each turn: * What information is the player given * what actions is the player allowed to take * compute the effects these actions have on the environment and other players * Game-end conditions Please ask me for more details for any of these phases, or more details on any specific role-playing system that I might know about.";;;1093.4714693;;;space;;;space;;;3;;;1.7253926999999294;;;3;;;2.984541600000057;;;5;;;4.260283800000025;;;;;;;;;;;;1078.4455982;;;1094.5048047999999;;;21.535301600000025;;;1116.3154418;;;1116.3154418;;;1116.3154418;;;1116.3154418;;;1120.5870389000002;;;1120.5870389000002;;;1.1490052999998852;;;;;;;;;;;;;;;;;;;;;4;;;001;;;2024-10-02_16h50.22.719;;;TEST_eye_tracker;;;2023.1.0;;;None;;;
430;;;C:\Users\lab_user\Desktop\LLM_Study\responses_files\prompt_430.xlsx;;;"I thought about a cool game concept - it's a multiplayer game app, and everyone playing it can have one action per day.
the game will be mostly about strategizing the best action and creating allies and enemies in the process.
can you expand upon this idea for me?";;;430;;;430.1;;;"There are a few different ways that you can expand the concept which you've outlined here. 1 - What is the setting of your game? Does it take place on a certain planet, or during a certain timeframe? 2 - What are the mechanics of the game? What actions can players take? 3 - How is an enemy or an ally determined? 4 - How do players progress in the game? How do they win? 5 - What events take place in the game independent of player actions that help guide the gameplay? By incorporating these kinds of elements to your initial outline, you'll eventually reach the point of being able to put code in place to accomplish your goal.";;;0;;;0;;;18;;;18;;;24;;;0;;;1;;;1;;;0;;;;;;;;;;;;;;;;;;;;;;;;;;;;;;;;;;;;;;;;;;;;;;;;;;;"I thought about a cool game concept - it's a multiplayer game app, and everyone playing it can have one action per day.
the game will be mostly about strategizing the best action and creating allies and enemies in the process.
can you expand upon this idea for me?";;;"There are a few different ways that you can expand the concept which you've outlined here. 1 - What is the setting of your game? Does it take place on a certain planet, or during a certain timeframe? 2 - What are the mechanics of the game? What actions can players take? 3 - How is an enemy or an ally determined? 4 - How do players progress in the game? How do they win? 5 - What events take place in the game independent of player actions that help guide the gameplay? By incorporating these kinds of elements to your initial outline, you'll eventually reach the point of being able to put code in place to accomplish your goal.";;;1121.7727967;;;space;;;space;;;4;;;2.6626668999999765;;;4;;;3.663794699999926;;;5;;;4.671509300000025;;;;;;;;;;;;;;;1122.7753124;;;20.912378699999977;;;1143.9619080000002;;;1143.9619080000002;;;1143.9619080000002;;;1143.9619080000002;;;1148.6512161;;;1148.6512161;;;1.101024299999949;;;;;;;;;;;;;;;;;;;;;4;;;001;;;2024-10-02_16h50.22.719;;;TEST_eye_tracker;;;2023.1.0;;;None;;;
430;;;C:\Users\lab_user\Desktop\LLM_Study\responses_files\prompt_430.xlsx;;;"I thought about a cool game concept - it's a multiplayer game app, and everyone playing it can have one action per day.
the game will be mostly about strategizing the best action and creating allies and enemies in the process.
can you expand upon this idea for me?";;;;;;;;;0.888;;;;;;0;;;18;;;18;;;24;;;;;;;;;;;;;;;;;;;;;;;;;;;;;;;;;;;;;;;;;;;;;;;;;;;;;;;;;;;;;;;"I thought about a cool game concept - it's a multiplayer game app, and everyone playing it can have one action per day.
the game will be mostly about strategizing the best action and creating allies and enemies in the process.
can you expand upon this idea for me?";;;0.888;;;;;;;;;;;;;;;;;;;;;;;;;;;;;;2;;;1.356692800000019;;;space;;;;;;;;;;;;;;;;;;;;;;;;;;;;;;;;;1149.7879444;;;1149.7879444;;;1151.1808230000001;;;1151.1808230000001;;;0.7065638999998782;;;;;;4;;;001;;;2024-10-02_16h50.22.719;;;TEST_eye_tracker;;;2023.1.0;;;None;;;
432;;;C:\Users\lab_user\Desktop\LLM_Study\responses_files\prompt_432.xlsx;;;"I have a github repo fork, how can I add it to my origin with `git remote add` ?";;;432;;;432.2;;;"1. In your local, rename your origin remote to upstream git remote rename origin upstream 2. Add a new origin git remote add origin git@github...my-fork 3. Fetch & push git fetch origin git push origin";;;2;;;0;;;19;;;19;;;26;;;0;;;0;;;0;;;1;;;;;;;;;;;;;;;;;;;;;;;;;;;1151.9821342999999;;;1152.5466780000002;;;1152.5466780000002;;;1152.5466780000002;;;1152.5466780000002;;;None;;;1;;;5.9644866000001;;;"I have a github repo fork, how can I add it to my origin with `git remote add` ?";;;"1. In your local, rename your origin remote to upstream git remote rename origin upstream 2. Add a new origin git remote add origin git@github...my-fork 3. Fetch & push git fetch origin git push origin";;;1158.7757425;;;space;;;space;;;3;;;2.99294789999999;;;4;;;4.604504899999938;;;5;;;5.743015100000093;;;;;;;;;;;;;;;1159.7869222;;;15.325229899999954;;;1175.3598855999999;;;1175.3598855999999;;;1175.3598855999999;;;1175.3598855999999;;;1181.1064234;;;1181.1064234;;;2.445682599999941;;;;;;;;;;;;;;;;;;;;;4;;;001;;;2024-10-02_16h50.22.719;;;TEST_eye_tracker;;;2023.1.0;;;None;;;
432;;;C:\Users\lab_user\Desktop\LLM_Study\responses_files\prompt_432.xlsx;;;"I have a github repo fork, how can I add it to my origin with `git remote add` ?";;;432;;;432.1;;;"To add your forked repository as a remote, you can use the `git remote add` command. The syntax for this command is `git remote add <name> <url>`. So, in your case, you would use `git remote add origin <url-of-your-forked-repo>`. This will add your forked repository as a remote to your local repository.";;;0;;;0;;;19;;;19;;;26;;;0;;;1;;;1;;;0;;;;;;;;;;;;;;;;;;;;;;;;;;;;;;;;;;;;;;;;;;;;;;;;;;;"I have a github repo fork, how can I add it to my origin with `git remote add` ?";;;"To add your forked repository as a remote, you can use the `git remote add` command. The syntax for this command is `git remote add <name> <url>`. So, in your case, you would use `git remote add origin <url-of-your-forked-repo>`. This will add your forked repository as a remote to your local repository.";;;1183.602887;;;space;;;space;;;4;;;2.072214600000052;;;4;;;3.982856899999888;;;5;;;7.129379299999982;;;;;;;;;;;;;;;1184.5968887;;;11.394726699999978;;;1196.2406841000002;;;1196.2406841000002;;;1196.2406841000002;;;1196.2406841000002;;;1202.4188769000002;;;1202.4188769000002;;;2.3890563000001066;;;;;;;;;;;;;;;;;;;;;4;;;001;;;2024-10-02_16h50.22.719;;;TEST_eye_tracker;;;2023.1.0;;;None;;;
432;;;C:\Users\lab_user\Desktop\LLM_Study\responses_files\prompt_432.xlsx;;;"I have a github repo fork, how can I add it to my origin with `git remote add` ?";;;;;;;;;0.888;;;;;;0;;;19;;;19;;;26;;;;;;;;;;;;;;;;;;;;;;;;;;;;;;;;;;;;;;;;;;;;;;;;;;;;;;;;;;;;;;;"I have a github repo fork, how can I add it to my origin with `git remote add` ?";;;0.888;;;;;;;;;;;;;;;;;;;;;;;;;;;;;;2;;;1.8569225000001097;;;space;;;;;;;;;;;;;;;;;;;;;;;;;;;;;;;;;1204.8373551999998;;;1204.8373551999998;;;1206.7128466;;;1206.7128466;;;0.4559032000000798;;;;;;4;;;001;;;2024-10-02_16h50.22.719;;;TEST_eye_tracker;;;2023.1.0;;;None;;;
414;;;C:\Users\lab_user\Desktop\LLM_Study\responses_files\prompt_414.xlsx;;;Is Open Assistant smarter than a human?;;;414;;;414.1;;;"It depends on how you define smart and how many humans you have as your sample size. I would judge that for now I am not smart as a human, as I don't have a will, nor a body.";;;0;;;0;;;20;;;20;;;8;;;0;;;0;;;0;;;0;;;;;;;;;;;;;;;;;;;;;;;;;;;1207.2591902;;;1207.7875388000002;;;1207.7875388000002;;;1207.7875388000002;;;1207.7875388000002;;;None;;;1;;;2.8999249999999392;;;Is Open Assistant smarter than a human?;;;"It depends on how you define smart and how many humans you have as your sample size. I would judge that for now I am not smart as a human, as I don't have a will, nor a body.";;;1210.9186604000001;;;space;;;space;;;4;;;5.9645095000000765;;;4;;;8.26383020000003;;;4;;;9.556803399999808;;;;;;;;;;;;1207.7875388000002;;;1211.9563999000002;;;10.067192600000112;;;1222.2905998;;;1222.2905998;;;1222.2905998;;;1222.2905998;;;1231.8563507999997;;;1231.8563507999997;;;1.4153012000000444;;;;;;;;;;;;;;;;;;;;;4;;;001;;;2024-10-02_16h50.22.719;;;TEST_eye_tracker;;;2023.1.0;;;None;;;
414;;;C:\Users\lab_user\Desktop\LLM_Study\responses_files\prompt_414.xlsx;;;Is Open Assistant smarter than a human?;;;414;;;414.3;;;Since large language models like me function differently to human brains there is no accurate way to measure my intelligence against that of a human. Therefore it is impossible to say wheter i'm smarter then a human.;;;2;;;0;;;20;;;20;;;8;;;0;;;1;;;1;;;1;;;;;;;;;;;;;;;;;;;;;;;;;;;;;;;;;;;;;;;;;;;;;;;;;;;Is Open Assistant smarter than a human?;;;Since large language models like me function differently to human brains there is no accurate way to measure my intelligence against that of a human. Therefore it is impossible to say wheter i'm smarter then a human.;;;1233.291819;;;space;;;space;;;5;;;1.4050812999998925;;;5;;;2.572258099999999;;;5;;;3.2301932000000306;;;;;;;;;;;;;;;1234.3306628;;;7.014476700000046;;;1241.5970585999999;;;1241.5970585999999;;;1241.5970585999999;;;1241.5970585999999;;;1244.8348880999997;;;1244.8348880999997;;;0.9570861999999352;;;;;;;;;;;;;;;;;;;;;4;;;001;;;2024-10-02_16h50.22.719;;;TEST_eye_tracker;;;2023.1.0;;;None;;;
414;;;C:\Users\lab_user\Desktop\LLM_Study\responses_files\prompt_414.xlsx;;;Is Open Assistant smarter than a human?;;;;;;;;;0.888;;;;;;0;;;20;;;20;;;8;;;;;;;;;;;;;;;;;;;;;;;;;;;;;;;;;;;;;;;;;;;;;;;;;;;;;;;;;;;;;;;Is Open Assistant smarter than a human?;;;0.888;;;;;;;;;;;;;;;;;;;;;;;;;;;;;;2;;;1.4227697000001172;;;space;;;;;;;;;;;;;;;;;;;;;;;;;;;;;;;;;1245.8243754;;;1245.8243754;;;1247.2701557;;;1247.2701557;;;0.8574336000000358;;;;;;4;;;001;;;2024-10-02_16h50.22.719;;;TEST_eye_tracker;;;2023.1.0;;;None;;;
444;;;C:\Users\lab_user\Desktop\LLM_Study\responses_files\prompt_444.xlsx;;;Why do mynas act aggressively when interacting with other bird species?;;;444;;;444.1;;;"Some species of mynas (such as the Common Myna) have been known to act aggressively towards other bird species. This behavior is often related to territorial defense or competition for food resources. Mynas can be very territorial and will chase other birds away from their territory or food sources. The aggression can also be seen during breeding season when the birds are trying to protect their nests. However, it is important to note that not all mynas display aggressive behavior and that individual behavior can vary greatly.";;;0;;;0;;;21;;;21;;;38;;;0;;;0;;;0;;;0;;;;;;;;;;;;;;;;;;;;;;;;;;;1248.2202612;;;1248.7347955;;;1248.7347955;;;1248.7347955;;;1248.7347955;;;None;;;1;;;8.08326070000021;;;Why do mynas act aggressively when interacting with other bird species?;;;"Some species of mynas (such as the Common Myna) have been known to act aggressively towards other bird species. This behavior is often related to territorial defense or competition for food resources. Mynas can be very territorial and will chase other birds away from their territory or food sources. The aggression can also be seen during breeding season when the birds are trying to protect their nests. However, it is important to note that not all mynas display aggressive behavior and that individual behavior can vary greatly.";;;1257.0580061;;;space;;;space;;;5;;;2.211695299999974;;;4;;;2.944770499999777;;;5;;;4.176751299999978;;;;;;;;;;;;;;;1258.0723524999999;;;24.215369400000213;;;1282.5526101;;;1282.5526101;;;1282.5526101;;;1282.5526101;;;1286.7385752999999;;;1286.7385752999999;;;1.1006037999999307;;;;;;;;;;;;;;;;;;;;;4;;;001;;;2024-10-02_16h50.22.719;;;TEST_eye_tracker;;;2023.1.0;;;None;;;
444;;;C:\Users\lab_user\Desktop\LLM_Study\responses_files\prompt_444.xlsx;;;Why do mynas act aggressively when interacting with other bird species?;;;444;;;444.4;;;to scare off ther birds for the food;;;4;;;0;;;21;;;21;;;38;;;0;;;1;;;1;;;1;;;;;;;;;;;;;;;;;;;;;;;;;;;;;;;;;;;;;;;;;;;;;;;;;;;Why do mynas act aggressively when interacting with other bird species?;;;to scare off ther birds for the food;;;1287.8768053;;;space;;;space;;;1;;;2.3795681999999942;;;3;;;4.035380400000122;;;4;;;6.905078799999956;;;;;;;;;;;;;;;1288.8888922;;;3.3511769000000413;;;1292.5168896999999;;;1292.5168896999999;;;1292.5168896999999;;;1292.5168896999999;;;1299.4330783;;;1299.4330783;;;0.6541794999997137;;;;;;;;;;;;;;;;;;;;;4;;;001;;;2024-10-02_16h50.22.719;;;TEST_eye_tracker;;;2023.1.0;;;None;;;
444;;;C:\Users\lab_user\Desktop\LLM_Study\responses_files\prompt_444.xlsx;;;Why do mynas act aggressively when interacting with other bird species?;;;;;;;;;0.888;;;;;;0;;;21;;;21;;;38;;;;;;;;;;;;;;;;;;;;;;;;;;;;;;;;;;;;;;;;;;;;;;;;;;;;;;;;;;;;;;;Why do mynas act aggressively when interacting with other bird species?;;;0.888;;;;;;;;;;;;;;;;;;;;;;;;;;;;;;1;;;1.9496196000000054;;;space;;;;;;;;;;;;;;;;;;;;;;;;;;;;;;;;;1300.1269287999999;;;1300.1269287999999;;;1302.1045663;;;1302.1045663;;;0.6804826000001185;;;;;;4;;;001;;;2024-10-02_16h50.22.719;;;TEST_eye_tracker;;;2023.1.0;;;None;;;
419;;;C:\Users\lab_user\Desktop\LLM_Study\responses_files\prompt_419.xlsx;;;What is intermittent fasting?;;;419;;;419.2;;;"Intermittent Fasting is an eating pattern where people limit their food consumption to certain hours of the day. There are periods of fasting, with no food, and periods of unrestricted eating. Generally, the minimum fasted period is 16 hours and an 8-hour period where you can eat normally (16:8).";;;2;;;0;;;22;;;22;;;13;;;0;;;0;;;0;;;1;;;;;;;;;;;;;;;;;;;;;;;;;;;1302.8667242000001;;;1303.4048401;;;1303.4048401;;;1303.4048401;;;1303.4048401;;;None;;;1;;;3.2483508999998776;;;What is intermittent fasting?;;;"Intermittent Fasting is an eating pattern where people limit their food consumption to certain hours of the day. There are periods of fasting, with no food, and periods of unrestricted eating. Generally, the minimum fasted period is 16 hours and an 8-hour period where you can eat normally (16:8).";;;1306.9200465999998;;;space;;;space;;;4;;;3.237619100000302;;;4;;;5.605776700000206;;;4;;;7.616911499999787;;;;;;;;;;;;;;;1307.9200136;;;12.95142280000016;;;1321.1529501999999;;;1321.1529501999999;;;1321.1529501999999;;;1321.1529501999999;;;1328.7775897000001;;;1328.7775897000001;;;1.229820999999788;;;;;;;;;;;;;;;;;;;;;4;;;001;;;2024-10-02_16h50.22.719;;;TEST_eye_tracker;;;2023.1.0;;;None;;;
419;;;C:\Users\lab_user\Desktop\LLM_Study\responses_files\prompt_419.xlsx;;;What is intermittent fasting?;;;419;;;419.1;;;"Intermittent fasting is to follow a schedule that cycle between fasting and non-fasting, for example, not eating for a period of time each day or week. Some popular methods are alternate-day fasting (eat normally one day and completely fast or reduce calorie intake the next day) and daily time-restricted fasting (eat normally but only within a several-hour-long window each day).";;;0;;;0;;;22;;;22;;;13;;;0;;;1;;;1;;;0;;;;;;;;;;;;;;;;;;;;;;;;;;;;;;;;;;;;;;;;;;;;;;;;;;;What is intermittent fasting?;;;"Intermittent fasting is to follow a schedule that cycle between fasting and non-fasting, for example, not eating for a period of time each day or week. Some popular methods are alternate-day fasting (eat normally one day and completely fast or reduce calorie intake the next day) and daily time-restricted fasting (eat normally but only within a several-hour-long window each day).";;;1330.0379887999998;;;space;;;space;;;4;;;2.3767359999997097;;;4;;;3.552270899999712;;;4;;;4.809099699999933;;;;;;;;;;;;;;;1331.039996;;;21.87938759999986;;;1353.2143029999997;;;1353.2143029999997;;;1353.2143029999997;;;1353.2143029999997;;;1358.0363609;;;1358.0363609;;;0.764043900000047;;;;;;;;;;;;;;;;;;;;;4;;;001;;;2024-10-02_16h50.22.719;;;TEST_eye_tracker;;;2023.1.0;;;None;;;
419;;;C:\Users\lab_user\Desktop\LLM_Study\responses_files\prompt_419.xlsx;;;What is intermittent fasting?;;;;;;;;;0.888;;;;;;0;;;22;;;22;;;13;;;;;;;;;;;;;;;;;;;;;;;;;;;;;;;;;;;;;;;;;;;;;;;;;;;;;;;;;;;;;;;What is intermittent fasting?;;;0.888;;;;;;;;;;;;;;;;;;;;;;;;;;;;;;1;;;4.494899400000122;;;space;;;;;;;;;;;;;;;;;;;;;;;;;;;;;;;;;1358.8283821999999;;;1358.8283821999999;;;1363.3533156999997;;;1363.3533156999997;;;0.6147377999999435;;;;;;4;;;001;;;2024-10-02_16h50.22.719;;;TEST_eye_tracker;;;2023.1.0;;;None;;;
437;;;C:\Users\lab_user\Desktop\LLM_Study\responses_files\prompt_437.xlsx;;;"The value of X is 4, and the value of Y is 3*x. The value of Z is X+Y. What is the value of Z?";;;437;;;437.3;;;The value of Z is 16. The reason is that 4*3 is 12 and 12+4 is 16.;;;2;;;0;;;23;;;23;;;31;;;0;;;0;;;0;;;1;;;;;;;;;;;;;;;;;;;;;;;;;;;1364.0645352000001;;;1364.5918898999998;;;1364.5918898999998;;;1364.5918898999998;;;1364.5918898999998;;;None;;;1;;;7.676438800000142;;;"The value of X is 4, and the value of Y is 3*x. The value of Z is X+Y. What is the value of Z?";;;The value of Z is 16. The reason is that 4*3 is 12 and 12+4 is 16.;;;1372.5209209999998;;;space;;;space;;;5;;;1.976836800000001;;;4;;;3.856423000000177;;;5;;;4.99297149999984;;;;;;;;;;;;;;;1373.5303920000001;;;10.381549999999947;;;1384.1667684;;;1384.1667684;;;1384.1667684;;;1384.1667684;;;1389.1685523;;;1389.1685523;;;0.9026795999997148;;;;;;;;;;;;;;;;;;;;;4;;;001;;;2024-10-02_16h50.22.719;;;TEST_eye_tracker;;;2023.1.0;;;None;;;
437;;;C:\Users\lab_user\Desktop\LLM_Study\responses_files\prompt_437.xlsx;;;"The value of X is 4, and the value of Y is 3*x. The value of Z is X+Y. What is the value of Z?";;;437;;;437.1;;;"Your question could be formulated in the following form: X = 4 Y = 3*X Z=Y+X Since X is known, we can fill it in: Y=3*4 = 12 Z=4+Y Now that Y is known, we can fill it in: Z= 4+12 = 16 The value of Z is 16";;;0;;;0;;;23;;;23;;;31;;;0;;;1;;;1;;;0;;;;;;;;;;;;;;;;;;;;;;;;;;;;;;;;;;;;;;;;;;;;;;;;;;;"The value of X is 4, and the value of Y is 3*x. The value of Z is X+Y. What is the value of Z?";;;"Your question could be formulated in the following form: X = 4 Y = 3*X Z=Y+X Since X is known, we can fill it in: Y=3*4 = 12 Z=4+Y Now that Y is known, we can fill it in: Z= 4+12 = 16 The value of Z is 16";;;1390.0967698999998;;;space;;;space;;;5;;;1.8087608999999247;;;4;;;2.37498370000003;;;5;;;3.247426500000074;;;;;;;;;;;;;;;1391.1335436999998;;;11.4340933000002;;;1402.8118607000001;;;1402.8118607000001;;;1402.8118607000001;;;1402.8118607000001;;;1406.0740010999998;;;1406.0740010999998;;;0.6373970000003055;;;;;;;;;;;;;;;;;;;;;4;;;001;;;2024-10-02_16h50.22.719;;;TEST_eye_tracker;;;2023.1.0;;;None;;;
437;;;C:\Users\lab_user\Desktop\LLM_Study\responses_files\prompt_437.xlsx;;;"The value of X is 4, and the value of Y is 3*x. The value of Z is X+Y. What is the value of Z?";;;;;;;;;0.888;;;;;;0;;;23;;;23;;;31;;;;;;;;;;;;;;;;;;;;;;;;;;;;;;;;;;;;;;;;;;;;;;;;;;;;;;;;;;;;;;;"The value of X is 4, and the value of Y is 3*x. The value of Z is X+Y. What is the value of Z?";;;0.888;;;;;;;;;;;;;;;;;;;;;;;;;;;;;;2;;;1.514230199999929;;;space;;;;;;;;;;;;;;;;;;;;;;;;;;;;;;;;;1406.7671105999998;;;1406.7671105999998;;;1408.2982469999997;;;1408.2982469999997;;;0.7414941000000681;;;;;;4;;;001;;;2024-10-02_16h50.22.719;;;TEST_eye_tracker;;;2023.1.0;;;None;;;
447;;;C:\Users\lab_user\Desktop\LLM_Study\responses_files\prompt_447.xlsx;;;Why should I use ProtonMail instead of Gmail?;;;447;;;447.3;;;You should use ProtonMail for your more sensitive communications.;;;2;;;0;;;24;;;24;;;41;;;0;;;0;;;0;;;1;;;;;;;;;;;;;;;;;;;;;;;;;;;1409.1247301999997;;;1409.6549602999999;;;1409.6549602999999;;;1409.6549602999999;;;1409.6549602999999;;;None;;;1;;;4.2507251000001816;;;Why should I use ProtonMail instead of Gmail?;;;You should use ProtonMail for your more sensitive communications.;;;1414.1614255;;;space;;;space;;;2;;;2.196968199999901;;;3;;;3.3919200999998793;;;3;;;4.877092500000344;;;;;;;;;;;;1409.6549602999999;;;1415.1616172;;;3.845866000000001;;;1419.2579959999998;;;1419.2579959999998;;;1419.2579959999998;;;1419.2579959999998;;;1424.1489502;;;1424.1489502;;;0.9703011000000288;;;;;;;;;;;;;;;;;;;;;4;;;001;;;2024-10-02_16h50.22.719;;;TEST_eye_tracker;;;2023.1.0;;;None;;;
447;;;C:\Users\lab_user\Desktop\LLM_Study\responses_files\prompt_447.xlsx;;;Why should I use ProtonMail instead of Gmail?;;;447;;;447.1;;;"1. ProtonMail provides strong end-to-end encryption, making it so that only you and the recipient can read your emails. While Gmail also offers basic encryption, it only works when the recipient uses the same type of encryption. Protonmail is also neutral (protected by strict Swiss privacy laws), has greater respect of your privacy and Protonmail is independent of the wider business model of Alphabet Inc. and their interest in data collection.";;;0;;;0;;;24;;;24;;;41;;;0;;;1;;;1;;;0;;;;;;;;;;;;;;;;;;;;;;;;;;;;;;;;;;;;;;;;;;;;;;;;;;;Why should I use ProtonMail instead of Gmail?;;;"1. ProtonMail provides strong end-to-end encryption, making it so that only you and the recipient can read your emails. While Gmail also offers basic encryption, it only works when the recipient uses the same type of encryption. Protonmail is also neutral (protected by strict Swiss privacy laws), has greater respect of your privacy and Protonmail is independent of the wider business model of Alphabet Inc. and their interest in data collection.";;;1425.1530638999998;;;space;;;space;;;5;;;2.3772169000003487;;;4;;;3.8654427999999825;;;5;;;4.563425199999983;;;;;;;;;;;;;;;1426.1642628;;;11.100022800000147;;;1437.5160127999998;;;1437.5160127999998;;;1437.5160127999998;;;1437.5160127999998;;;1442.0862656999998;;;1442.0862656999998;;;1.3216658000000052;;;;;;;;;;;;;;;;;;;;;4;;;001;;;2024-10-02_16h50.22.719;;;TEST_eye_tracker;;;2023.1.0;;;None;;;
447;;;C:\Users\lab_user\Desktop\LLM_Study\responses_files\prompt_447.xlsx;;;Why should I use ProtonMail instead of Gmail?;;;;;;;;;0.888;;;;;;0;;;24;;;24;;;41;;;;;;;;;;;;;;;;;;;;;;;;;;;;;;;;;;;;;;;;;;;;;;;;;;;;;;;;;;;;;;;Why should I use ProtonMail instead of Gmail?;;;0.888;;;;;;;;;;;;;;;;;;;;;;;;;;;;;;2;;;1.7064164999997047;;;space;;;;;;;;;;;;;;;;;;;;;;;;;;;;;;;;;1443.4681680999997;;;1443.4681680999997;;;1445.2123919;;;1445.2123919;;;0.5227893999998514;;;;;;4;;;001;;;2024-10-02_16h50.22.719;;;TEST_eye_tracker;;;2023.1.0;;;None;;;
423;;;C:\Users\lab_user\Desktop\LLM_Study\responses_files\prompt_423.xlsx;;;Is Open Assistant a better chatbot than ChatGPT?;;;423;;;423.3;;;"Not yet, I guess";;;2;;;0;;;25;;;25;;;17;;;0;;;0;;;0;;;1;;;;;;;;;;;;;;;;;;;;;;;;;;;1445.82319;;;1446.3461905;;;1446.3461905;;;1446.3461905;;;1446.3461905;;;None;;;1;;;3.4009343000002445;;;Is Open Assistant a better chatbot than ChatGPT?;;;"Not yet, I guess";;;1449.9830751999998;;;space;;;space;;;2;;;2.12013479999996;;;2;;;2.968602800000099;;;3;;;4.994659800000136;;;;;;;;;;;;1446.3461905;;;1450.9969259999998;;;2.3706783000001224;;;1453.6109600999998;;;1453.6109600999998;;;1453.6109600999998;;;1453.6109600999998;;;1458.6200494;;;1458.6200494;;;1.8046840000000657;;;;;;;;;;;;;;;;;;;;;4;;;001;;;2024-10-02_16h50.22.719;;;TEST_eye_tracker;;;2023.1.0;;;None;;;
423;;;C:\Users\lab_user\Desktop\LLM_Study\responses_files\prompt_423.xlsx;;;Is Open Assistant a better chatbot than ChatGPT?;;;423;;;423.1;;;"It depends. ChatGPT is, as of February 2023, more widely used and produces higher quality output. However, Open Assistant is a fully open source chatbot, which means the code, dataset, and weights will be available to the public to build upon and extend.";;;0;;;0;;;25;;;25;;;17;;;0;;;1;;;1;;;0;;;;;;;;;;;;;;;;;;;;;;;;;;;;;;;;;;;;;;;;;;;;;;;;;;;Is Open Assistant a better chatbot than ChatGPT?;;;"It depends. ChatGPT is, as of February 2023, more widely used and produces higher quality output. However, Open Assistant is a fully open source chatbot, which means the code, dataset, and weights will be available to the public to build upon and extend.";;;1460.4801235999998;;;space;;;space;;;4;;;2.9769289999999273;;;4;;;3.8989489000000503;;;5;;;5.554727199999888;;;;;;;;;;;;;;;1461.4679299;;;7.8840911000000915;;;1469.6144694;;;1469.6144694;;;1469.6144694;;;1469.6144694;;;1475.1766435999998;;;1475.1766435999998;;;1.2310682000000952;;;;;;;;;;;;;;;;;;;;;4;;;001;;;2024-10-02_16h50.22.719;;;TEST_eye_tracker;;;2023.1.0;;;None;;;
423;;;C:\Users\lab_user\Desktop\LLM_Study\responses_files\prompt_423.xlsx;;;Is Open Assistant a better chatbot than ChatGPT?;;;;;;;;;0.888;;;;;;0;;;25;;;25;;;17;;;;;;;;;;;;;;;;;;;;;;;;;;;;;;;;;;;;;;;;;;;;;;;;;;;;;;;;;;;;;;;Is Open Assistant a better chatbot than ChatGPT?;;;0.888;;;;;;;;;;;;;;;;;;;;;;;;;;;;;;2;;;1.8296767000001637;;;space;;;;;;;;;;;;;;;;;;;;;;;;;;;;;;;;;1476.4393716999998;;;1476.4393716999998;;;1478.3105620000001;;;1478.3105620000001;;;0.5463898000001564;;;;;;4;;;001;;;2024-10-02_16h50.22.719;;;TEST_eye_tracker;;;2023.1.0;;;None;;;
442;;;C:\Users\lab_user\Desktop\LLM_Study\responses_files\prompt_442.xlsx;;;"Pretend to be customer support for Apple. I am an old lady, and my phone screen has just gone blank. I'm not able to turn it on. Please help me.";;;442;;;442.2;;;Can you try plugging it in the battery might need to be charged.;;;2;;;0;;;26;;;26;;;36;;;0;;;0;;;0;;;1;;;;;;;;;;;;;;;;;;;;;;;;;;;1478.9388666;;;1479.4592533;;;1479.4592533;;;1479.4592533;;;1479.4592533;;;None;;;1;;;8.922660499999893;;;"Pretend to be customer support for Apple. I am an old lady, and my phone screen has just gone blank. I'm not able to turn it on. Please help me.";;;Can you try plugging it in the battery might need to be charged.;;;1488.6141993;;;space;;;space;;;2;;;2.0112914999999703;;;2;;;2.9995137000000796;;;3;;;3.9591575999997985;;;;;;;;;;;;;;;1489.6076064999997;;;3.6562672999997403;;;1493.5067755999999;;;1493.5067755999999;;;1493.5067755999999;;;1493.5067755999999;;;1497.4745487999999;;;1497.4745487999999;;;0.6447643000000198;;;;;;;;;;;;;;;;;;;;;4;;;001;;;2024-10-02_16h50.22.719;;;TEST_eye_tracker;;;2023.1.0;;;None;;;
442;;;C:\Users\lab_user\Desktop\LLM_Study\responses_files\prompt_442.xlsx;;;"Pretend to be customer support for Apple. I am an old lady, and my phone screen has just gone blank. I'm not able to turn it on. Please help me.";;;442;;;442.1;;;"Hello ma'am, could you please try to connect the charging cable and let me know if you see hear or feel any feedback?";;;0;;;0;;;26;;;26;;;36;;;0;;;1;;;1;;;0;;;;;;;;;;;;;;;;;;;;;;;;;;;;;;;;;;;;;;;;;;;;;;;;;;;"Pretend to be customer support for Apple. I am an old lady, and my phone screen has just gone blank. I'm not able to turn it on. Please help me.";;;"Hello ma'am, could you please try to connect the charging cable and let me know if you see hear or feel any feedback?";;;1498.1532487;;;space;;;space;;;4;;;3.575970099999722;;;3;;;5.183988599999793;;;4;;;10.131722800000261;;;;;;;;;;;;;;;1499.1892899999998;;;5.225778999999761;;;1504.6840490999998;;;1504.6840490999998;;;1504.6840490999998;;;1504.6840490999998;;;1514.8292551999998;;;1514.8292551999998;;;1.386511100000348;;;;;;;;;;;;;;;;;;;;;4;;;001;;;2024-10-02_16h50.22.719;;;TEST_eye_tracker;;;2023.1.0;;;None;;;
442;;;C:\Users\lab_user\Desktop\LLM_Study\responses_files\prompt_442.xlsx;;;"Pretend to be customer support for Apple. I am an old lady, and my phone screen has just gone blank. I'm not able to turn it on. Please help me.";;;;;;;;;0.888;;;;;;0;;;26;;;26;;;36;;;;;;;;;;;;;;;;;;;;;;;;;;;;;;;;;;;;;;;;;;;;;;;;;;;;;;;;;;;;;;;"Pretend to be customer support for Apple. I am an old lady, and my phone screen has just gone blank. I'm not able to turn it on. Please help me.";;;0.888;;;;;;;;;;;;;;;;;;;;;;;;;;;;;;2;;;1.256952800000363;;;space;;;;;;;;;;;;;;;;;;;;;;;;;;;;;;;;;1516.2445057999998;;;1516.2445057999998;;;1517.5317688999999;;;1517.5317688999999;;;0.7962161999997761;;;;;;4;;;001;;;2024-10-02_16h50.22.719;;;TEST_eye_tracker;;;2023.1.0;;;None;;;
429;;;C:\Users\lab_user\Desktop\LLM_Study\responses_files\prompt_429.xlsx;;;Is it spelled casual or causal?;;;429;;;429.1;;;"Both "casual" and "causal" are English adjectives. The word "casual" means relaxed or informal, as in "The partygoers came in casual attire." On the other hand, the word "causal" means involving or constituting a cause. This word is often found in the subject of statistics, as in "We could not prove a causal relationship from strong correlation alone."";;;0;;;0;;;27;;;27;;;23;;;0;;;0;;;0;;;0;;;;;;;;;;;;;;;;;;;;;;;;;;;1518.4092382999997;;;1518.9334046999998;;;1518.9334046999998;;;1518.9334046999998;;;1518.9334046999998;;;None;;;1;;;5.0277140999996845;;;Is it spelled casual or causal?;;;"Both "casual" and "causal" are English adjectives. The word "casual" means relaxed or informal, as in "The partygoers came in casual attire." On the other hand, the word "causal" means involving or constituting a cause. This word is often found in the subject of statistics, as in "We could not prove a causal relationship from strong correlation alone."";;;1524.2018605999997;;;space;;;space;;;4;;;1.9458877000001849;;;4;;;2.8311705000000984;;;5;;;3.553798999999799;;;;;;;;;;;;;;;1525.2099429;;;18.262110600000028;;;1543.7263279999997;;;1543.7263279999997;;;1543.7263279999997;;;1543.7263279999997;;;1547.2855279;;;1547.2855279;;;0.7701757999997199;;;;;;;;;;;;;;;;;;;;;4;;;001;;;2024-10-02_16h50.22.719;;;TEST_eye_tracker;;;2023.1.0;;;None;;;
429;;;C:\Users\lab_user\Desktop\LLM_Study\responses_files\prompt_429.xlsx;;;Is it spelled casual or causal?;;;429;;;429.3;;;"These are two separate words. "Casual" means "informal", while "causal" means "related to a cause".";;;2;;;0;;;27;;;27;;;23;;;0;;;1;;;1;;;1;;;;;;;;;;;;;;;;;;;;;;;;;;;;;;;;;;;;;;;;;;;;;;;;;;;Is it spelled casual or causal?;;;"These are two separate words. "Casual" means "informal", while "causal" means "related to a cause".";;;1548.0923035;;;space;;;space;;;4;;;2.54379869999957;;;3;;;3.4967584999999417;;;4;;;5.1564376999999695;;;;;;;;;;;;;;;1549.0776548;;;4.26587810000035;;;1553.6242277000001;;;1553.6242277000001;;;1553.6242277000001;;;1553.6242277000001;;;1558.7889203;;;1558.7889203;;;1.0188631000004307;;;;;;;;;;;;;;;;;;;;;4;;;001;;;2024-10-02_16h50.22.719;;;TEST_eye_tracker;;;2023.1.0;;;None;;;
429;;;C:\Users\lab_user\Desktop\LLM_Study\responses_files\prompt_429.xlsx;;;Is it spelled casual or causal?;;;;;;;;;0.888;;;;;;0;;;27;;;27;;;23;;;;;;;;;;;;;;;;;;;;;;;;;;;;;;;;;;;;;;;;;;;;;;;;;;;;;;;;;;;;;;;Is it spelled casual or causal?;;;0.888;;;;;;;;;;;;;;;;;;;;;;;;;;;;;;1;;;1.9861073000001852;;;space;;;;;;;;;;;;;;;;;;;;;;;;;;;;;;;;;1559.8346685000001;;;1559.8346685000001;;;1561.8615494;;;1561.8615494;;;0.6014801000000034;;;;;;4;;;001;;;2024-10-02_16h50.22.719;;;TEST_eye_tracker;;;2023.1.0;;;None;;;
407;;;C:\Users\lab_user\Desktop\LLM_Study\responses_files\prompt_407.xlsx;;;What is the capital of Japan?;;;407;;;407.1;;;Tokyo is the capital of Japan.;;;0;;;0;;;28;;;28;;;1;;;0;;;0;;;0;;;0;;;;;;;;;;;;;;;;;;;;;;;;;;;1562.5526964;;;1563.0897719;;;1563.0897719;;;1563.0897719;;;1563.0897719;;;None;;;1;;;1.6045407999999952;;;What is the capital of Japan?;;;Tokyo is the capital of Japan.;;;1564.946458;;;space;;;space;;;5;;;2.3525227999998606;;;4;;;3.65589110000019;;;5;;;4.295804800000042;;;;;;;;;;;;;;;1565.9336362;;;1.6817474999996875;;;1567.8673069000001;;;1567.8673069000001;;;1567.8673069000001;;;1567.8673069000001;;;1572.1734957999997;;;1572.1734957999997;;;0.5785282999999026;;;;;;;;;;;;;;;;;;;;;4;;;001;;;2024-10-02_16h50.22.719;;;TEST_eye_tracker;;;2023.1.0;;;None;;;
407;;;C:\Users\lab_user\Desktop\LLM_Study\responses_files\prompt_407.xlsx;;;What is the capital of Japan?;;;407;;;407.3;;;It's Tokyo.;;;2;;;0;;;28;;;28;;;1;;;0;;;1;;;1;;;1;;;;;;;;;;;;;;;;;;;;;;;;;;;;;;;;;;;;;;;;;;;;;;;;;;;What is the capital of Japan?;;;It's Tokyo.;;;1572.7811883;;;space;;;space;;;4;;;2.2875278999999864;;;2;;;4.421962899999926;;;4;;;5.423045900000034;;;;;;;;;;;;;;;1573.7771023999999;;;1.4779416999998602;;;1575.5137602;;;1575.5137602;;;1575.5137602;;;1575.5137602;;;1580.9457451999997;;;1580.9457451999997;;;1.0938368999999284;;;;;;;;;;;;;;;;;;;;;4;;;001;;;2024-10-02_16h50.22.719;;;TEST_eye_tracker;;;2023.1.0;;;None;;;
407;;;C:\Users\lab_user\Desktop\LLM_Study\responses_files\prompt_407.xlsx;;;What is the capital of Japan?;;;;;;;;;0.888;;;;;;0;;;28;;;28;;;1;;;;;;;;;;;;;;;;;;;;;;;;;;;;;;;;;;;;;;;;;;;;;;;;;;;;;;;;;;;;;;;What is the capital of Japan?;;;0.888;;;;;;;;;;;;;;;;;;;;;;;;;;;;;;1;;;1.4144474999998238;;;space;;;;;;;;;;;;;;;;;;;;;;;;;;;;;;;;;1582.0657059;;;1582.0657059;;;1583.5262591;;;1583.5262591;;;0.7773701999998366;;;;;;4;;;001;;;2024-10-02_16h50.22.719;;;TEST_eye_tracker;;;2023.1.0;;;None;;;
