n_prompt;;;prompt_file;;;prompt_text;;;related_prompt;;;n_resp;;;resp_text;;;rank;;;Trial.thisRepN;;;Trial.thisTrialN;;;Trial.thisN;;;Trial.thisIndex;;;per_answer.thisRepN;;;per_answer.thisTrialN;;;per_answer.thisN;;;per_answer.thisIndex;;;key_resp_5.started;;;textbox.started;;;key_resp_5.keys;;;key_resp_5.rt;;;textbox_2.started;;;key_resp_8.started;;;key_resp_8.keys;;;key_resp_8.rt;;;text.started;;;Prompt_.started;;;key_resp_4.started;;;slider_skip.started;;;text_4.started;;;key_resp_4.keys;;;slider_skip.response;;;slider_skip.rt;;;prompt_text;;;resp_text;;;cross_white.started;;;key_resp_2.started;;;key_resp_2.keys;;;key_resp_2.rt;;;question_useful_2.started;;;quality.started;;;rude_polite.started;;;ViolentHarmless.started;;;key_resp_6.started;;;press_space.started;;;key_resp_6.keys;;;key_resp_6.rt;;;quality.response;;;quality.rt;;;rude_polite.response;;;rude_polite.rt;;;ViolentHarmless.response;;;ViolentHarmless.rt;;;question_ranking.started;;;ranking_better.started;;;key_resp_7.started;;;text_2.started;;;ranking_better.response;;;ranking_better.rt;;;key_resp_7.keys;;;key_resp_7.rt;;;text.stopped;;;cross_white.stopped;;;participant;;;session;;;date;;;expName;;;psychopyVersion;;;frameRate;;;
;;;;;;;;;;;;;;;;;;;;;;;;;;;;;;;;;;;;;;;;;;;;;16.325954500003718;;;16.325954500003718;;;space;;;36.15335099992808;;;;;;;;;;;;;;;;;;;;;;;;;;;;;;;;;;;;;;;;;;;;;;;;;;;;;;;;;;;;;;;;;;;;;;;;;;;;;;;;;;;;;;;;;;;;;;;;;;;;;;;;;;;;;;;;;;;;;;;;;;;;;;;;;2;;;001;;;2024-10-15_18h19.20.556;;;TEST_eye_tracker;;;2023.1.0;;;None;;;
;;;;;;;;;;;;;;;;;;;;;;;;;;;;;;;;;;;;;;;;;;;;;;;;;;;;;;;;;52.515496899955906;;;52.515496899955906;;;space;;;36.36464360007085;;;;;;;;;;;;;;;;;;;;;;;;;;;;;;;;;;;;;;;;;;;;;;;;;;;;;;;;;;;;;;;;;;;;;;;;;;;;;;;;;;;;;;;;;;;;;;;;;;;;;;;;;;;;;;;;;;;;;2;;;001;;;2024-10-15_18h19.20.556;;;TEST_eye_tracker;;;2023.1.0;;;None;;;
175;;;C:\Users\lab_user\Desktop\LLM_Study\responses_files\prompt_175.xlsx;;;"I want to apply for a job as a Junior Software Engineer, could you write me a CV?";;;175;;;175.2;;;"In order to write a CV for you, I will need to know a little more about you. Could you please tell me about any skills, experience, and education you have that's relevant to Software Engineering?";;;1;;;0;;;0;;;0;;;39;;;0;;;0;;;0;;;1;;;;;;;;;;;;;;;;;;;;;;;;;;;88.96916420001071;;;101.3830491999397;;;101.3830491999397;;;101.3830491999397;;;101.3830491999397;;;None;;;1;;;17.222285999916494;;;"I want to apply for a job as a Junior Software Engineer, could you write me a CV?";;;"In order to write a CV for you, I will need to know a little more about you. Could you please tell me about any skills, experience, and education you have that's relevant to Software Engineering?";;;118.83723459998146;;;119.9022554999683;;;space;;;8.969360699993558;;;129.44128949998412;;;129.44128949998412;;;129.44128949998412;;;129.44128949998412;;;160.25238399999216;;;160.25238399999216;;;space;;;1.3389465000946075;;;4;;;25.858933600015007;;;5;;;28.78243859997019;;;1;;;30.797159899957478;;;;;;;;;;;;;;;;;;;;;;;;;;;;;;;;;2;;;001;;;2024-10-15_18h19.20.556;;;TEST_eye_tracker;;;2023.1.0;;;None;;;
175;;;C:\Users\lab_user\Desktop\LLM_Study\responses_files\prompt_175.xlsx;;;"I want to apply for a job as a Junior Software Engineer, could you write me a CV?";;;175;;;175.1;;;"Sure, but I would need to know a few things about you first: - Your work and academic experience. - Your skills, including the programming languages you know. - The projects which you have worked on for school or work.";;;0;;;0;;;0;;;0;;;39;;;0;;;1;;;1;;;0;;;;;;;;;;;;;;;;;;;;;;;;;;;;;;;;;;;;;;;;;;;;;;;;;;;"I want to apply for a job as a Junior Software Engineer, could you write me a CV?";;;"Sure, but I would need to know a few things about you first: - Your work and academic experience. - Your skills, including the programming languages you know. - The projects which you have worked on for school or work.";;;161.62535849993583;;;162.649972800049;;;space;;;13.253318700008094;;;176.1912266999716;;;176.1912266999716;;;176.1912266999716;;;176.1912266999716;;;188.3299930000212;;;188.3299930000212;;;space;;;3.5573200000217184;;;3;;;4.919210999971256;;;5;;;8.664580600103363;;;5;;;12.112423100043088;;;;;;;;;;;;;;;;;;;;;;;;;;;;;;;;;2;;;001;;;2024-10-15_18h19.20.556;;;TEST_eye_tracker;;;2023.1.0;;;None;;;
175;;;C:\Users\lab_user\Desktop\LLM_Study\responses_files\prompt_175.xlsx;;;"I want to apply for a job as a Junior Software Engineer, could you write me a CV?";;;;;;;;;0.888;;;;;;0;;;0;;;0;;;39;;;;;;;;;;;;;;;;;;;;;;;;;;;;;;;;;;;;;;;;;;;;;;;;;;;;;;;;;;;;;;;"I want to apply for a job as a Junior Software Engineer, could you write me a CV?";;;0.888;;;;;;;;;;;;;;;;;;;;;;;;;;;;;;;;;;;;;;;;;;;;;;;;;;;;;;;;;191.94442069996148;;;191.94442069996148;;;196.2728303000331;;;196.2728303000331;;;1;;;4.28203530004248;;;space;;;1.030375099973753;;;;;;;;;2;;;001;;;2024-10-15_18h19.20.556;;;TEST_eye_tracker;;;2023.1.0;;;None;;;
171;;;C:\Users\lab_user\Desktop\LLM_Study\responses_files\prompt_171.xlsx;;;My study on a recently dead tyrannosaurus rex revealed that the poison glands are located at the tip of tyrannosaurus' ears. Do you know what kind of a venom these glands produce?;;;171;;;171.1;;;"To the best of my knowledge the Tyrannosaurus Rex was a theropod dinosaur that lived from the Maastrichtian age of the Upper Cretaceous period, 68 to 66 million years ago. Although some soft tissue and protein remains have been found there are no reports of any poison glands. So I can unfortunately not answer your question.";;;0;;;0;;;1;;;1;;;35;;;0;;;0;;;0;;;0;;;;;;;;;;;;;;;;;;;;;;;;;;;197.42351680004504;;;197.9859253000468;;;197.9859253000468;;;197.9859253000468;;;197.9859253000468;;;None;;;1;;;19.462229499942623;;;My study on a recently dead tyrannosaurus rex revealed that the poison glands are located at the tip of tyrannosaurus' ears. Do you know what kind of a venom these glands produce?;;;"To the best of my knowledge the Tyrannosaurus Rex was a theropod dinosaur that lived from the Maastrichtian age of the Upper Cretaceous period, 68 to 66 million years ago. Although some soft tissue and protein remains have been found there are no reports of any poison glands. So I can unfortunately not answer your question.";;;217.70128759997897;;;218.72268050001003;;;space;;;16.132230899995193;;;235.15102770004887;;;235.15102770004887;;;235.15102770004887;;;235.15102770004887;;;244.42305630003102;;;244.42305630003102;;;space;;;2.591978900018148;;;5;;;4.775418000062928;;;5;;;6.4172072999645025;;;5;;;9.277745999977924;;;;;;;;;;;;;;;;;;;;;;;;;;;197.9859253000468;;;;;;2;;;001;;;2024-10-15_18h19.20.556;;;TEST_eye_tracker;;;2023.1.0;;;None;;;
171;;;C:\Users\lab_user\Desktop\LLM_Study\responses_files\prompt_171.xlsx;;;My study on a recently dead tyrannosaurus rex revealed that the poison glands are located at the tip of tyrannosaurus' ears. Do you know what kind of a venom these glands produce?;;;171;;;171.3;;;"Sorry, I am not familiar with your study. Given the type of eating it did, it may have been for paralysis. Would you be able to give more details?";;;2;;;0;;;1;;;1;;;35;;;0;;;1;;;1;;;1;;;;;;;;;;;;;;;;;;;;;;;;;;;;;;;;;;;;;;;;;;;;;;;;;;;My study on a recently dead tyrannosaurus rex revealed that the poison glands are located at the tip of tyrannosaurus' ears. Do you know what kind of a venom these glands produce?;;;"Sorry, I am not familiar with your study. Given the type of eating it did, it may have been for paralysis. Would you be able to give more details?";;;247.05245850002393;;;248.0584112999495;;;space;;;9.692744400002994;;;258.0195902000414;;;258.0195902000414;;;258.0195902000414;;;258.0195902000414;;;266.2815549999941;;;266.2815549999941;;;space;;;2.333979499991983;;;4;;;4.88225969998166;;;4;;;6.538974400027655;;;5;;;8.253782599931583;;;;;;;;;;;;;;;;;;;;;;;;;;;;;;;;;2;;;001;;;2024-10-15_18h19.20.556;;;TEST_eye_tracker;;;2023.1.0;;;None;;;
171;;;C:\Users\lab_user\Desktop\LLM_Study\responses_files\prompt_171.xlsx;;;My study on a recently dead tyrannosaurus rex revealed that the poison glands are located at the tip of tyrannosaurus' ears. Do you know what kind of a venom these glands produce?;;;;;;;;;0.888;;;;;;0;;;1;;;1;;;35;;;;;;;;;;;;;;;;;;;;;;;;;;;;;;;;;;;;;;;;;;;;;;;;;;;;;;;;;;;;;;;My study on a recently dead tyrannosaurus rex revealed that the poison glands are located at the tip of tyrannosaurus' ears. Do you know what kind of a venom these glands produce?;;;0.888;;;;;;;;;;;;;;;;;;;;;;;;;;;;;;;;;;;;;;;;;;;;;;;;;;;;;;;;;268.6500040999381;;;268.6500040999381;;;270.83817639993504;;;270.83817639993504;;;1;;;2.1601277999579906;;;space;;;0.9050943000474945;;;;;;;;;2;;;001;;;2024-10-15_18h19.20.556;;;TEST_eye_tracker;;;2023.1.0;;;None;;;
140;;;C:\Users\lab_user\Desktop\LLM_Study\responses_files\prompt_140.xlsx;;;How much is the world's plot of land worth if someone wanted to buy it?;;;140;;;140.3;;;"You can use this formula to estimate the cost of land. Plot Value = End Value – Development Costs – Desired Equity Then identify and deduct all the costs involved in designing and building the house. The remaining amount will be the desired development profit or equity, and the sum you need to buy the plot. This is essentially its valuation.";;;2;;;0;;;2;;;2;;;4;;;0;;;0;;;0;;;1;;;;;;;;;;;;;;;;;;;;;;;;;;;271.8569545999635;;;272.38086799997836;;;272.38086799997836;;;272.38086799997836;;;272.38086799997836;;;None;;;1;;;11.228867599973455;;;How much is the world's plot of land worth if someone wanted to buy it?;;;"You can use this formula to estimate the cost of land. Plot Value = End Value – Development Costs – Desired Equity Then identify and deduct all the costs involved in designing and building the house. The remaining amount will be the desired development profit or equity, and the sum you need to buy the plot. This is essentially its valuation.";;;283.88319760002196;;;284.89644080004655;;;space;;;44.83840130001772;;;330.02039209997747;;;330.02039209997747;;;330.02039209997747;;;330.02039209997747;;;342.10968039999716;;;342.10968039999716;;;space;;;1.1451254000421613;;;3;;;8.226950100040995;;;5;;;11.170625100028701;;;5;;;12.04169029998593;;;;;;;;;;;;;;;;;;;;;;;;;;;;;;;;;2;;;001;;;2024-10-15_18h19.20.556;;;TEST_eye_tracker;;;2023.1.0;;;None;;;
140;;;C:\Users\lab_user\Desktop\LLM_Study\responses_files\prompt_140.xlsx;;;How much is the world's plot of land worth if someone wanted to buy it?;;;140;;;140.1;;;"Hmm. I don’t think there’s a way of calculating that. Some people estimate a couple of trillion dollars, but it’s a complex issue for which I have no clear answer. Remember, not all land in the world can be bought.";;;0;;;0;;;2;;;2;;;4;;;0;;;1;;;1;;;0;;;;;;;;;;;;;;;;;;;;;;;;;;;;;;;;;;;;;;;;;;;;;;;;;;;How much is the world's plot of land worth if someone wanted to buy it?;;;"Hmm. I don’t think there’s a way of calculating that. Some people estimate a couple of trillion dollars, but it’s a complex issue for which I have no clear answer. Remember, not all land in the world can be bought.";;;343.2886534000281;;;344.316538700019;;;space;;;12.194713800097816;;;356.80650309997145;;;356.80650309997145;;;356.80650309997145;;;356.80650309997145;;;364.09916500002146;;;364.09916500002146;;;space;;;0.9002470000414178;;;3;;;3.189763500005938;;;4;;;5.254937500110827;;;5;;;7.251389800105244;;;;;;;;;;;;;;;;;;;;;;;;;;;;;;;;;2;;;001;;;2024-10-15_18h19.20.556;;;TEST_eye_tracker;;;2023.1.0;;;None;;;
140;;;C:\Users\lab_user\Desktop\LLM_Study\responses_files\prompt_140.xlsx;;;How much is the world's plot of land worth if someone wanted to buy it?;;;;;;;;;0.888;;;;;;0;;;2;;;2;;;4;;;;;;;;;;;;;;;;;;;;;;;;;;;;;;;;;;;;;;;;;;;;;;;;;;;;;;;;;;;;;;;How much is the world's plot of land worth if someone wanted to buy it?;;;0.888;;;;;;;;;;;;;;;;;;;;;;;;;;;;;;;;;;;;;;;;;;;;;;;;;;;;;;;;;365.03125250001904;;;365.03125250001904;;;366.9072535999585;;;366.9072535999585;;;1;;;1.8252187999896705;;;space;;;0.7714687999105081;;;;;;;;;2;;;001;;;2024-10-15_18h19.20.556;;;TEST_eye_tracker;;;2023.1.0;;;None;;;
173;;;C:\Users\lab_user\Desktop\LLM_Study\responses_files\prompt_173.xlsx;;;What is the recommended formatting style for C++?;;;173;;;173.3;;;"Although there are many different formatting styles to choose from, preference is typically the confounding factor for what any one person or team chooses. The most commonly used formatting style for C++ programming is ANSI or Allman. Teams at Google have their own formatting guidelines, and there are many public Style Guides out there that you can try out.";;;3;;;0;;;3;;;3;;;37;;;0;;;0;;;0;;;1;;;;;;;;;;;;;;;;;;;;;;;;;;;367.7894767000107;;;368.33934509998653;;;368.33934509998653;;;368.33934509998653;;;368.33934509998653;;;None;;;1;;;4.8749211999820545;;;What is the recommended formatting style for C++?;;;"Although there are many different formatting styles to choose from, preference is typically the confounding factor for what any one person or team chooses. The most commonly used formatting style for C++ programming is ANSI or Allman. Teams at Google have their own formatting guidelines, and there are many public Style Guides out there that you can try out.";;;373.4714451000327;;;374.48537969996687;;;space;;;21.065726100001484;;;395.83959340001456;;;395.83959340001456;;;395.83959340001456;;;395.83959340001456;;;401.7874195999466;;;401.7874195999466;;;space;;;2.828652099939063;;;4;;;2.329884000006132;;;5;;;4.692200499936007;;;5;;;5.93559460004326;;;;;;;;;;;;;;;;;;;;;;;;;;;;;;;;;2;;;001;;;2024-10-15_18h19.20.556;;;TEST_eye_tracker;;;2023.1.0;;;None;;;
173;;;C:\Users\lab_user\Desktop\LLM_Study\responses_files\prompt_173.xlsx;;;What is the recommended formatting style for C++?;;;173;;;173.1;;;"There are several recommended formatting styles for C++, but the most widely accepted one is the "Google C++ Style Guide". This style guide provides a set of rules and guidelines for writing clean, readable, and maintainable C++ code.";;;1;;;0;;;3;;;3;;;37;;;0;;;1;;;1;;;0;;;;;;;;;;;;;;;;;;;;;;;;;;;;;;;;;;;;;;;;;;;;;;;;;;;What is the recommended formatting style for C++?;;;"There are several recommended formatting styles for C++, but the most widely accepted one is the "Google C++ Style Guide". This style guide provides a set of rules and guidelines for writing clean, readable, and maintainable C++ code.";;;404.65535729995463;;;405.6592823000392;;;space;;;19.435894700000063;;;425.4113431000151;;;425.4113431000151;;;425.4113431000151;;;425.4113431000151;;;431.747279800009;;;431.747279800009;;;space;;;0.8992822000291198;;;4;;;4.063208700041287;;;5;;;5.284085000050254;;;5;;;6.32246140006464;;;;;;;;;;;;;;;;;;;;;;;;;;;;;;;;;2;;;001;;;2024-10-15_18h19.20.556;;;TEST_eye_tracker;;;2023.1.0;;;None;;;
173;;;C:\Users\lab_user\Desktop\LLM_Study\responses_files\prompt_173.xlsx;;;What is the recommended formatting style for C++?;;;;;;;;;0.888;;;;;;0;;;3;;;3;;;37;;;;;;;;;;;;;;;;;;;;;;;;;;;;;;;;;;;;;;;;;;;;;;;;;;;;;;;;;;;;;;;What is the recommended formatting style for C++?;;;0.888;;;;;;;;;;;;;;;;;;;;;;;;;;;;;;;;;;;;;;;;;;;;;;;;;;;;;;;;;432.688318099943;;;432.688318099943;;;442.952566199936;;;442.952566199936;;;2;;;10.246768000070006;;;space;;;0.8300702000269666;;;;;;;;;2;;;001;;;2024-10-15_18h19.20.556;;;TEST_eye_tracker;;;2023.1.0;;;None;;;
156;;;C:\Users\lab_user\Desktop\LLM_Study\responses_files\prompt_156.xlsx;;;What advice would you give to someone struggling with social anxiety and being socially awkward?;;;156;;;156.1;;;"It's great that you've become aware of your social anxiety, and that you want to become more social. Start by taking small steps outside of your comfort zone. For example, if you feel anxious about the way you are perceived by others, it may be helpful to reveal a bit more of yourself to people you trust. If you struggle with feeling comfortable opening up to others you know, then it may be easier to socialize online or with strangers. It's important to understand that the process may be difficult and time-consuming, and it can be stressful to take yourself outside your comfort zone, so don't feel discouraged if it feels slow.";;;1;;;0;;;4;;;4;;;20;;;0;;;0;;;0;;;0;;;;;;;;;;;;;;;;;;;;;;;;;;;443.91042179998476;;;444.41780950000975;;;444.41780950000975;;;444.41780950000975;;;444.41780950000975;;;None;;;1;;;5.92416970001068;;;What advice would you give to someone struggling with social anxiety and being socially awkward?;;;"It's great that you've become aware of your social anxiety, and that you want to become more social. Start by taking small steps outside of your comfort zone. For example, if you feel anxious about the way you are perceived by others, it may be helpful to reveal a bit more of yourself to people you trust. If you struggle with feeling comfortable opening up to others you know, then it may be easier to socialize online or with strangers. It's important to understand that the process may be difficult and time-consuming, and it can be stressful to take yourself outside your comfort zone, so don't feel discouraged if it feels slow.";;;450.58437569998205;;;451.6274288999848;;;space;;;33.883534899912775;;;485.804724699934;;;485.804724699934;;;485.804724699934;;;485.804724699934;;;494.65914450003766;;;494.65914450003766;;;space;;;0.8993352999677882;;;4;;;6.289686999982223;;;5;;;7.924433399923146;;;5;;;8.844291800050996;;;;;;;;;;;;;;;;;;;;;;;;;;;;;;;;;2;;;001;;;2024-10-15_18h19.20.556;;;TEST_eye_tracker;;;2023.1.0;;;None;;;
156;;;C:\Users\lab_user\Desktop\LLM_Study\responses_files\prompt_156.xlsx;;;What advice would you give to someone struggling with social anxiety and being socially awkward?;;;156;;;156.2;;;"Do something that you are comfortable with and enjoy that can be done with a group of people that enjoy the same thing. You won't immediately be cured of your social anxiety, but overtime, it will help you with being comfortable around other people.";;;2;;;0;;;4;;;4;;;20;;;0;;;1;;;1;;;1;;;;;;;;;;;;;;;;;;;;;;;;;;;;;;;;;;;;;;;;;;;;;;;;;;;What advice would you give to someone struggling with social anxiety and being socially awkward?;;;"Do something that you are comfortable with and enjoy that can be done with a group of people that enjoy the same thing. You won't immediately be cured of your social anxiety, but overtime, it will help you with being comfortable around other people.";;;495.57905059994664;;;496.5888295000186;;;space;;;13.265383399906568;;;510.1606233000057;;;510.1606233000057;;;510.1606233000057;;;510.1606233000057;;;515.5589361999882;;;515.5589361999882;;;space;;;5.415609200019389;;;4;;;2.0815853000385687;;;5;;;3.2278508000308648;;;5;;;5.39110319991596;;;;;;;;;;;;;;;;;;;;;;;;;;;;;;;;;2;;;001;;;2024-10-15_18h19.20.556;;;TEST_eye_tracker;;;2023.1.0;;;None;;;
156;;;C:\Users\lab_user\Desktop\LLM_Study\responses_files\prompt_156.xlsx;;;What advice would you give to someone struggling with social anxiety and being socially awkward?;;;;;;;;;0.888;;;;;;0;;;4;;;4;;;20;;;;;;;;;;;;;;;;;;;;;;;;;;;;;;;;;;;;;;;;;;;;;;;;;;;;;;;;;;;;;;;What advice would you give to someone struggling with social anxiety and being socially awkward?;;;0.888;;;;;;;;;;;;;;;;;;;;;;;;;;;;;;;;;;;;;;;;;;;;;;;;;;;;;;;;;521.0054197999416;;;521.0054197999416;;;522.6645330999745;;;522.6645330999745;;;1;;;1.6342841000296175;;;space;;;3.053749099955894;;;;;;;;;2;;;001;;;2024-10-15_18h19.20.556;;;TEST_eye_tracker;;;2023.1.0;;;None;;;
161;;;C:\Users\lab_user\Desktop\LLM_Study\responses_files\prompt_161.xlsx;;;What is the best way to import the BERT Language model into python (PyTorch)?;;;161;;;161.1;;;"The easiest way to import the BERT language model into python for use with PyTorch is using the Hugging Face Transformer's library, which has built in methods for pre-training, inference, and deploying BERT. ``` from transformers import AutoTokenizer, BertModel import torch tokenizer = AutoTokenizer.from_pretrained("bert-base-uncased") model = BertModel.from_pretrained("bert-base-uncased") inputs = tokenizer("Hello, my dog is cute", return_tensors="pt") outputs = model(**inputs) last_hidden_states = outputs.last_hidden_state ```";;;0;;;0;;;5;;;5;;;25;;;0;;;0;;;0;;;0;;;;;;;;;;;;;;;;;;;;;;;;;;;525.8242863999913;;;526.391203599982;;;526.391203599982;;;526.391203599982;;;526.391203599982;;;None;;;1;;;3.8509957999922335;;;What is the best way to import the BERT Language model into python (PyTorch)?;;;"The easiest way to import the BERT language model into python for use with PyTorch is using the Hugging Face Transformer's library, which has built in methods for pre-training, inference, and deploying BERT. ``` from transformers import AutoTokenizer, BertModel import torch tokenizer = AutoTokenizer.from_pretrained("bert-base-uncased") model = BertModel.from_pretrained("bert-base-uncased") inputs = tokenizer("Hello, my dog is cute", return_tensors="pt") outputs = model(**inputs) last_hidden_states = outputs.last_hidden_state ```";;;530.5097179999575;;;531.5193150000414;;;space;;;49.19146310002543;;;580.9941458000103;;;580.9941458000103;;;580.9941458000103;;;580.9941458000103;;;588.9344851999776;;;588.9344851999776;;;space;;;1.2086580999894068;;;3;;;1.9971822999650612;;;4;;;5.972308599972166;;;5;;;7.932145799975842;;;;;;;;;;;;;;;;;;;;;;;;;;;;;;;;;2;;;001;;;2024-10-15_18h19.20.556;;;TEST_eye_tracker;;;2023.1.0;;;None;;;
161;;;C:\Users\lab_user\Desktop\LLM_Study\responses_files\prompt_161.xlsx;;;What is the best way to import the BERT Language model into python (PyTorch)?;;;161;;;161.2;;;import bert;;;2;;;0;;;5;;;5;;;25;;;0;;;1;;;1;;;1;;;;;;;;;;;;;;;;;;;;;;;;;;;;;;;;;;;;;;;;;;;;;;;;;;;What is the best way to import the BERT Language model into python (PyTorch)?;;;import bert;;;590.1664909999818;;;591.1619409000268;;;space;;;4.5733267000177875;;;596.0218392999377;;;596.0218392999377;;;596.0218392999377;;;596.0218392999377;;;603.8130081000272;;;603.8130081000272;;;space;;;2.80911490006838;;;1;;;2.054962099995464;;;3;;;6.2958427000558;;;5;;;7.7739754000213;;;;;;;;;;;;;;;;;;;;;;;;;;;;;;591.1619409000268;;;2;;;001;;;2024-10-15_18h19.20.556;;;TEST_eye_tracker;;;2023.1.0;;;None;;;
161;;;C:\Users\lab_user\Desktop\LLM_Study\responses_files\prompt_161.xlsx;;;What is the best way to import the BERT Language model into python (PyTorch)?;;;;;;;;;0.888;;;;;;0;;;5;;;5;;;25;;;;;;;;;;;;;;;;;;;;;;;;;;;;;;;;;;;;;;;;;;;;;;;;;;;;;;;;;;;;;;;What is the best way to import the BERT Language model into python (PyTorch)?;;;0.888;;;;;;;;;;;;;;;;;;;;;;;;;;;;;;;;;;;;;;;;;;;;;;;;;;;;;;;;;606.6574316000333;;;606.6574316000333;;;611.2320213000057;;;611.2320213000057;;;1;;;4.553861499996856;;;space;;;0.790797800058499;;;;;;;;;2;;;001;;;2024-10-15_18h19.20.556;;;TEST_eye_tracker;;;2023.1.0;;;None;;;
144;;;C:\Users\lab_user\Desktop\LLM_Study\responses_files\prompt_144.xlsx;;;Is this Saturday good for camping?;;;144;;;144.1;;;Saturday is a good day for camping since most jobs have weekends off allowing a good opportunity to camp. It also allows you to camp on Saturday sleep and use Sunday to pack up and return home from your trip.;;;1;;;0;;;6;;;6;;;8;;;0;;;0;;;0;;;0;;;;;;;;;;;;;;;;;;;;;;;;;;;612.1723828000249;;;612.6867580999387;;;612.6867580999387;;;612.6867580999387;;;612.6867580999387;;;None;;;1;;;2.7248270999407396;;;Is this Saturday good for camping?;;;Saturday is a good day for camping since most jobs have weekends off allowing a good opportunity to camp. It also allows you to camp on Saturday sleep and use Sunday to pack up and return home from your trip.;;;615.6787196999649;;;616.7025242999662;;;space;;;23.05552329996135;;;640.023627400049;;;640.023627400049;;;640.023627400049;;;640.023627400049;;;654.3895507999696;;;654.3895507999696;;;space;;;1.0809391000075266;;;3;;;6.799072499969043;;;4;;;13.02004900004249;;;5;;;14.352727900026366;;;;;;;;;;;;;;;;;;;;;;;;;;;;;;;;;2;;;001;;;2024-10-15_18h19.20.556;;;TEST_eye_tracker;;;2023.1.0;;;None;;;
144;;;C:\Users\lab_user\Desktop\LLM_Study\responses_files\prompt_144.xlsx;;;Is this Saturday good for camping?;;;144;;;144.2;;;"Yes, sure! Why it wouldn't?";;;2;;;0;;;6;;;6;;;8;;;0;;;1;;;1;;;1;;;;;;;;;;;;;;;;;;;;;;;;;;;;;;;;;;;;;;;;;;;;;;;;;;;Is this Saturday good for camping?;;;"Yes, sure! Why it wouldn't?";;;655.5047845999943;;;656.5267630999442;;;space;;;3.4645198000362143;;;660.2719189999625;;;660.2719189999625;;;660.2719189999625;;;660.2719189999625;;;676.6607635000255;;;676.6607635000255;;;space;;;0.827026000013575;;;2;;;16.377681299927644;;;5;;;4.767164200078696;;;5;;;1.9518521999707446;;;;;;;;;;;;;;;;;;;;;;;;;;;;;;;;;2;;;001;;;2024-10-15_18h19.20.556;;;TEST_eye_tracker;;;2023.1.0;;;None;;;
144;;;C:\Users\lab_user\Desktop\LLM_Study\responses_files\prompt_144.xlsx;;;Is this Saturday good for camping?;;;;;;;;;0.888;;;;;;0;;;6;;;6;;;8;;;;;;;;;;;;;;;;;;;;;;;;;;;;;;;;;;;;;;;;;;;;;;;;;;;;;;;;;;;;;;;Is this Saturday good for camping?;;;0.888;;;;;;;;;;;;;;;;;;;;;;;;;;;;;;;;;;;;;;;;;;;;;;;;;;;;;;;;;677.527211699984;;;677.527211699984;;;679.5366830000421;;;679.5366830000421;;;1;;;1.9898871999466792;;;space;;;1.4134809999959543;;;;;;;;;2;;;001;;;2024-10-15_18h19.20.556;;;TEST_eye_tracker;;;2023.1.0;;;None;;;
157;;;C:\Users\lab_user\Desktop\LLM_Study\responses_files\prompt_157.xlsx;;;Hello! What would be a good prompt for a text to image AI? I want it to create a 1800's fantasy landscape. I want it to have pastel colors and also rich in details. Please use descriptive words and max 20 words.;;;157;;;157.1;;;"A good prompt for a 1800's fantasy landscape with pastel colors and rich details would be the following: "Create a pastel-hued, detailed 1800's fantasy landscape with rolling hills, babbling brooks, towering castles, and magical creatures."";;;0;;;0;;;7;;;7;;;21;;;0;;;0;;;0;;;0;;;;;;;;;;;;;;;;;;;;;;;;;;;681.0813233000226;;;681.6278538999613;;;681.6278538999613;;;681.6278538999613;;;681.6278538999613;;;None;;;1;;;17.95899489999283;;;Hello! What would be a good prompt for a text to image AI? I want it to create a 1800's fantasy landscape. I want it to have pastel colors and also rich in details. Please use descriptive words and max 20 words.;;;"A good prompt for a 1800's fantasy landscape with pastel colors and rich details would be the following: "Create a pastel-hued, detailed 1800's fantasy landscape with rolling hills, babbling brooks, towering castles, and magical creatures."";;;699.8538442000281;;;700.8556386999553;;;space;;;9.83048050000798;;;710.9719477000181;;;710.9719477000181;;;710.9719477000181;;;710.9719477000181;;;715.7949105999433;;;715.7949105999433;;;space;;;0.7715222999686375;;;5;;;2.191640799981542;;;5;;;4.022159699932672;;;5;;;4.823676500003785;;;;;;;;;;;;;;;;;;;;;;;;;;;;;;;;;2;;;001;;;2024-10-15_18h19.20.556;;;TEST_eye_tracker;;;2023.1.0;;;None;;;
157;;;C:\Users\lab_user\Desktop\LLM_Study\responses_files\prompt_157.xlsx;;;Hello! What would be a good prompt for a text to image AI? I want it to create a 1800's fantasy landscape. I want it to have pastel colors and also rich in details. Please use descriptive words and max 20 words.;;;157;;;157.3;;;"Fantasy landscape, hyperrealistic, pastel colors, by greg rutkowski";;;2;;;0;;;7;;;7;;;21;;;0;;;1;;;1;;;1;;;;;;;;;;;;;;;;;;;;;;;;;;;;;;;;;;;;;;;;;;;;;;;;;;;Hello! What would be a good prompt for a text to image AI? I want it to create a 1800's fantasy landscape. I want it to have pastel colors and also rich in details. Please use descriptive words and max 20 words.;;;"Fantasy landscape, hyperrealistic, pastel colors, by greg rutkowski";;;716.6145530999638;;;717.6256378999678;;;space;;;6.484824699931778;;;724.3975097000366;;;724.3975097000366;;;724.3975097000366;;;724.3975097000366;;;736.1762007999932;;;736.1762007999932;;;space;;;1.1019928000168875;;;2;;;3.113082099938765;;;3;;;10.553065999993123;;;5;;;11.762285799952224;;;;;;;;;;;;;;;;;;;;;;;;;;;;;;;;;2;;;001;;;2024-10-15_18h19.20.556;;;TEST_eye_tracker;;;2023.1.0;;;None;;;
157;;;C:\Users\lab_user\Desktop\LLM_Study\responses_files\prompt_157.xlsx;;;Hello! What would be a good prompt for a text to image AI? I want it to create a 1800's fantasy landscape. I want it to have pastel colors and also rich in details. Please use descriptive words and max 20 words.;;;;;;;;;0.888;;;;;;0;;;7;;;7;;;21;;;;;;;;;;;;;;;;;;;;;;;;;;;;;;;;;;;;;;;;;;;;;;;;;;;;;;;;;;;;;;;Hello! What would be a good prompt for a text to image AI? I want it to create a 1800's fantasy landscape. I want it to have pastel colors and also rich in details. Please use descriptive words and max 20 words.;;;0.888;;;;;;;;;;;;;;;;;;;;;;;;;;;;;;;;;;;;;;;;;;;;;;;;;;;;;;;;;737.3256300999783;;;737.3256300999783;;;739.1884162999922;;;739.1884162999922;;;1;;;1.8224779999582097;;;space;;;0.6021778000285849;;;;;;;;;2;;;001;;;2024-10-15_18h19.20.556;;;TEST_eye_tracker;;;2023.1.0;;;None;;;
142;;;C:\Users\lab_user\Desktop\LLM_Study\responses_files\prompt_142.xlsx;;;"If A is the sister of B, B is the sister of C, and C is the mother of D, then what relation is D to A?";;;142;;;142.1;;;"If A is the sister of B, B is the sister of C, and C is the mother of D, then D is the niece (or nephew) of A.";;;0;;;0;;;8;;;8;;;6;;;0;;;0;;;0;;;0;;;;;;;;;;;;;;;;;;;;;;;;;;;739.8926604000153;;;740.447424700018;;;740.447424700018;;;740.447424700018;;;740.447424700018;;;None;;;1;;;58.43032690009568;;;"If A is the sister of B, B is the sister of C, and C is the mother of D, then what relation is D to A?";;;"If A is the sister of B, B is the sister of C, and C is the mother of D, then D is the niece (or nephew) of A.";;;799.1491108000046;;;800.147864599945;;;space;;;21.130280899931677;;;821.5725904999999;;;821.5725904999999;;;821.5725904999999;;;821.5725904999999;;;830.5597615999868;;;830.5597615999868;;;space;;;6.446328000049107;;;4;;;5.382033500005491;;;4;;;7.8722473999951035;;;5;;;8.981104700011201;;;;;;;;;;;;;;;;;;;;;;;;;;;;;;;;;2;;;001;;;2024-10-15_18h19.20.556;;;TEST_eye_tracker;;;2023.1.0;;;None;;;
142;;;C:\Users\lab_user\Desktop\LLM_Study\responses_files\prompt_142.xlsx;;;"If A is the sister of B, B is the sister of C, and C is the mother of D, then what relation is D to A?";;;142;;;142.2;;;Yes! I love word problems and data structures. Let's think through this step by step. A is the sister of B B is the sister of C C is the mother of D Calculating... A is the sister of C A is the aunt of D Answer: D is A's niece. Generalized algorithm: 1. Use a directed graph to model the connections where person is a vertex and each relationship is an edge. 2. Add edges based on a set of rules. In this case the rules are: * 'mother'/'sister' edges create an 'aunt' edge * two 'sister' edges create a direct 'sister' edge 3. Repeatedly apply rules until there are no longer any new edges added.;;;1;;;0;;;8;;;8;;;6;;;0;;;1;;;1;;;1;;;;;;;;;;;;;;;;;;;;;;;;;;;;;;;;;;;;;;;;;;;;;;;;;;;"If A is the sister of B, B is the sister of C, and C is the mother of D, then what relation is D to A?";;;Yes! I love word problems and data structures. Let's think through this step by step. A is the sister of B B is the sister of C C is the mother of D Calculating... A is the sister of C A is the aunt of D Answer: D is A's niece. Generalized algorithm: 1. Use a directed graph to model the connections where person is a vertex and each relationship is an edge. 2. Add edges based on a set of rules. In this case the rules are: * 'mother'/'sister' edges create an 'aunt' edge * two 'sister' edges create a direct 'sister' edge 3. Repeatedly apply rules until there are no longer any new edges added.;;;837.0470656999387;;;838.0812845999608;;;space;;;30.084371299948543;;;868.4798841000302;;;868.4798841000302;;;868.4798841000302;;;868.4798841000302;;;878.2103332999395;;;878.2103332999395;;;space;;;0.8684021000517532;;;3;;;5.1423280000453815;;;5;;;8.519238400040194;;;5;;;9.706828800030053;;;;;;;;;;;;;;;;;;;;;;;;;;;;;;838.0812845999608;;;2;;;001;;;2024-10-15_18h19.20.556;;;TEST_eye_tracker;;;2023.1.0;;;None;;;
142;;;C:\Users\lab_user\Desktop\LLM_Study\responses_files\prompt_142.xlsx;;;"If A is the sister of B, B is the sister of C, and C is the mother of D, then what relation is D to A?";;;;;;;;;0.888;;;;;;0;;;8;;;8;;;6;;;;;;;;;;;;;;;;;;;;;;;;;;;;;;;;;;;;;;;;;;;;;;;;;;;;;;;;;;;;;;;"If A is the sister of B, B is the sister of C, and C is the mother of D, then what relation is D to A?";;;0.888;;;;;;;;;;;;;;;;;;;;;;;;;;;;;;;;;;;;;;;;;;;;;;;;;;;;;;;;;879.1535972999409;;;879.1535972999409;;;880.9030882000225;;;880.9030882000225;;;1;;;1.7318677000002936;;;space;;;0.7119015000062063;;;;;;;;;2;;;001;;;2024-10-15_18h19.20.556;;;TEST_eye_tracker;;;2023.1.0;;;None;;;
176;;;C:\Users\lab_user\Desktop\LLM_Study\responses_files\prompt_176.xlsx;;;"I have an appointment in two weeks on the 29th. Is there anything else going on that day and if so, will I have time to go to the store in town between events?";;;176;;;176.1;;;"I don't have access to specific event schedules and details. However, you can check online calendars or event websites for the 29th to see if there are any events or activities that could impact your schedule. As for going to the store in town, it would depend on the timing and duration of your events, as well as the distance to the store.";;;0;;;0;;;9;;;9;;;40;;;0;;;0;;;0;;;0;;;;;;;;;;;;;;;;;;;;;;;;;;;881.7192891000304;;;882.2621842999943;;;882.2621842999943;;;882.2621842999943;;;882.2621842999943;;;None;;;1;;;29.687213399913162;;;"I have an appointment in two weeks on the 29th. Is there anything else going on that day and if so, will I have time to go to the store in town between events?";;;"I don't have access to specific event schedules and details. However, you can check online calendars or event websites for the 29th to see if there are any events or activities that could impact your schedule. As for going to the store in town, it would depend on the timing and duration of your events, as well as the distance to the store.";;;912.1935604000464;;;913.231069499976;;;space;;;15.766504400060512;;;929.3122207999695;;;929.3122207999695;;;929.3122207999695;;;929.3122207999695;;;937.2421080999775;;;937.2421080999775;;;space;;;0.6202123999828473;;;3;;;4.855037200031802;;;4;;;7.058552599977702;;;5;;;7.90918179997243;;;;;;;;;;;;;;;;;;;;;;;;;;;;;;;;;2;;;001;;;2024-10-15_18h19.20.556;;;TEST_eye_tracker;;;2023.1.0;;;None;;;
176;;;C:\Users\lab_user\Desktop\LLM_Study\responses_files\prompt_176.xlsx;;;"I have an appointment in two weeks on the 29th. Is there anything else going on that day and if so, will I have time to go to the store in town between events?";;;176;;;176.3;;;"Sorry, I'm afraid I can't help you without more information. Assuming you would live to know if there are other local events that day, could you give me the locations?";;;2;;;0;;;9;;;9;;;40;;;0;;;1;;;1;;;1;;;;;;;;;;;;;;;;;;;;;;;;;;;;;;;;;;;;;;;;;;;;;;;;;;;"I have an appointment in two weeks on the 29th. Is there anything else going on that day and if so, will I have time to go to the store in town between events?";;;"Sorry, I'm afraid I can't help you without more information. Assuming you would live to know if there are other local events that day, could you give me the locations?";;;937.9196757000173;;;938.8952237999765;;;space;;;13.318808000069112;;;952.5078967999434;;;952.5078967999434;;;952.5078967999434;;;952.5078967999434;;;964.8767161000287;;;964.8767161000287;;;space;;;1.4094930000137538;;;2;;;3.998655300005339;;;2;;;7.264370599994436;;;3;;;12.355584900011308;;;;;;;;;;;;;;;;;;;;;;;;;;;;;;;;;2;;;001;;;2024-10-15_18h19.20.556;;;TEST_eye_tracker;;;2023.1.0;;;None;;;
176;;;C:\Users\lab_user\Desktop\LLM_Study\responses_files\prompt_176.xlsx;;;"I have an appointment in two weeks on the 29th. Is there anything else going on that day and if so, will I have time to go to the store in town between events?";;;;;;;;;0.888;;;;;;0;;;9;;;9;;;40;;;;;;;;;;;;;;;;;;;;;;;;;;;;;;;;;;;;;;;;;;;;;;;;;;;;;;;;;;;;;;;"I have an appointment in two weeks on the 29th. Is there anything else going on that day and if so, will I have time to go to the store in town between events?";;;0.888;;;;;;;;;;;;;;;;;;;;;;;;;;;;;;;;;;;;;;;;;;;;;;;;;;;;;;;;;966.3207011000486;;;966.3207011000486;;;967.8530038000317;;;967.8530038000317;;;1;;;1.4998743999749422;;;space;;;1.0173553000204265;;;;;;;;;2;;;001;;;2024-10-15_18h19.20.556;;;TEST_eye_tracker;;;2023.1.0;;;None;;;
150;;;C:\Users\lab_user\Desktop\LLM_Study\responses_files\prompt_150.xlsx;;;What is Formula One?;;;150;;;150.2;;;Formula One is the most prestigious level of worldwide racing for open-wheel single-seater formula racing cars authorized by the Fédération Internationale de l'Automobile.;;;2;;;0;;;10;;;10;;;14;;;0;;;0;;;0;;;1;;;;;;;;;;;;;;;;;;;;;;;;;;;968.9785331999883;;;969.4910020999378;;;969.4910020999378;;;969.4910020999378;;;969.4910020999378;;;None;;;1;;;2.1629231999395415;;;What is Formula One?;;;Formula One is the most prestigious level of worldwide racing for open-wheel single-seater formula racing cars authorized by the Fédération Internationale de l'Automobile.;;;971.9160348000005;;;972.9294236999704;;;space;;;8.428705799975432;;;981.6347101000138;;;981.6347101000138;;;981.6347101000138;;;981.6347101000138;;;989.3226724000415;;;989.3226724000415;;;space;;;0.5475684999255463;;;4;;;4.608613800024614;;;4;;;6.79648699995596;;;5;;;7.680373900104314;;;;;;;;;;;;;;;;;;;;;;;;;;;969.4910020999378;;;;;;2;;;001;;;2024-10-15_18h19.20.556;;;TEST_eye_tracker;;;2023.1.0;;;None;;;
150;;;C:\Users\lab_user\Desktop\LLM_Study\responses_files\prompt_150.xlsx;;;What is Formula One?;;;150;;;150.1;;;"Formula One is a racing competition sanctioned by Fédération Internationale de l'Automobile. It is an international racing for open-wheel single-seated cars that premiered in 1950. A formula one season is a series of races, each held on different tracks in different countries around the world, known as the Grands Prix. You can catch this years competitions from March 5th, 2023 to November 26th, 2023.";;;1;;;0;;;10;;;10;;;14;;;0;;;1;;;1;;;0;;;;;;;;;;;;;;;;;;;;;;;;;;;;;;;;;;;;;;;;;;;;;;;;;;;What is Formula One?;;;"Formula One is a racing competition sanctioned by Fédération Internationale de l'Automobile. It is an international racing for open-wheel single-seated cars that premiered in 1950. A formula one season is a series of races, each held on different tracks in different countries around the world, known as the Grands Prix. You can catch this years competitions from March 5th, 2023 to November 26th, 2023.";;;989.9127520000329;;;990.9299547999399;;;space;;;24.260671700001694;;;1015.498935700045;;;1015.498935700045;;;1015.498935700045;;;1015.498935700045;;;1025.7056648000143;;;1025.7056648000143;;;space;;;0.8281686999835074;;;4;;;3.376608399907127;;;5;;;6.883072099997662;;;5;;;10.19583970005624;;;;;;;;;;;;;;;;;;;;;;;;;;;;;;;;;2;;;001;;;2024-10-15_18h19.20.556;;;TEST_eye_tracker;;;2023.1.0;;;None;;;
150;;;C:\Users\lab_user\Desktop\LLM_Study\responses_files\prompt_150.xlsx;;;What is Formula One?;;;;;;;;;0.888;;;;;;0;;;10;;;10;;;14;;;;;;;;;;;;;;;;;;;;;;;;;;;;;;;;;;;;;;;;;;;;;;;;;;;;;;;;;;;;;;;What is Formula One?;;;0.888;;;;;;;;;;;;;;;;;;;;;;;;;;;;;;;;;;;;;;;;;;;;;;;;;;;;;;;;;1026.578339300002;;;1026.578339300002;;;1028.688556900015;;;1028.688556900015;;;2;;;2.054130799951963;;;space;;;0.6937844000058249;;;;;;;;;2;;;001;;;2024-10-15_18h19.20.556;;;TEST_eye_tracker;;;2023.1.0;;;None;;;
178;;;C:\Users\lab_user\Desktop\LLM_Study\responses_files\prompt_178.xlsx;;;"I have the following python function:

```python
def resize_images(images, res_x, res_y):
    resized_images = np.zeros((images.shape[0], res_x, res_y))
    for n in range(len(images)):
        resized_images[n, :, :] = resize(images[n, :, :], resized_images.shape[1:], anti_aliasing=False)
    return resized_images
```

What does the function do?";;;178;;;178.1;;;"The function resize_images takes in a list of images represented by the images numpy array, and the desired resolutions res_x and res_y. The function then creates a numpy array resized_images with the same number of images as the input images numpy array, but with the desired resolutions res_x and res_y. The function then iterates over each image in the images array using the for loop. For each iteration, it resizes the current image using the resize function from the scipy.misc library, and stores the resized image in the corresponding position in the resized_images array. Finally, the function returns the resized_images array with the resized images.";;;1;;;0;;;11;;;11;;;42;;;0;;;0;;;0;;;0;;;;;;;;;;;;;;;;;;;;;;;;;;;1029.496306200046;;;1030.089349900023;;;1030.089349900023;;;1030.089349900023;;;1030.089349900023;;;None;;;1;;;59.49922959995456;;;"I have the following python function:

```python
def resize_images(images, res_x, res_y):
    resized_images = np.zeros((images.shape[0], res_x, res_y))
    for n in range(len(images)):
        resized_images[n, :, :] = resize(images[n, :, :], resized_images.shape[1:], anti_aliasing=False)
    return resized_images
```

What does the function do?";;;"The function resize_images takes in a list of images represented by the images numpy array, and the desired resolutions res_x and res_y. The function then creates a numpy array resized_images with the same number of images as the input images numpy array, but with the desired resolutions res_x and res_y. The function then iterates over each image in the images array using the for loop. For each iteration, it resizes the current image using the resize function from the scipy.misc library, and stores the resized image in the corresponding position in the resized_images array. Finally, the function returns the resized_images array with the resized images.";;;1089.8432014000136;;;1090.8498271999415;;;space;;;66.8999794999836;;;1158.0365133000305;;;1158.0365133000305;;;1158.0365133000305;;;1158.0365133000305;;;1169.094481499982;;;1169.094481499982;;;space;;;0.8633644999936223;;;4;;;3.188625100068748;;;5;;;10.247729099937715;;;5;;;11.029532400076278;;;;;;;;;;;;;;;;;;;;;;;;;;;;;;;;;2;;;001;;;2024-10-15_18h19.20.556;;;TEST_eye_tracker;;;2023.1.0;;;None;;;
178;;;C:\Users\lab_user\Desktop\LLM_Study\responses_files\prompt_178.xlsx;;;"I have the following python function:

```python
def resize_images(images, res_x, res_y):
    resized_images = np.zeros((images.shape[0], res_x, res_y))
    for n in range(len(images)):
        resized_images[n, :, :] = resize(images[n, :, :], resized_images.shape[1:], anti_aliasing=False)
    return resized_images
```

What does the function do?";;;178;;;178.3;;;"This function resizes a given set of images to a specified size. The function takes in a list of images, along with a desired x-axis and y-axis resolutions (resx and resy). The function then creates a new array of the specified size, and iterates through the images list to resize each one using the scikit-image library's resize() function. The anti-aliasing parameter is set to false, which will prevent the images from being blurred. The resized images are then returned.";;;3;;;0;;;11;;;11;;;42;;;0;;;1;;;1;;;1;;;;;;;;;;;;;;;;;;;;;;;;;;;;;;;;;;;;;;;;;;;;;;;;;;;"I have the following python function:

```python
def resize_images(images, res_x, res_y):
    resized_images = np.zeros((images.shape[0], res_x, res_y))
    for n in range(len(images)):
        resized_images[n, :, :] = resize(images[n, :, :], resized_images.shape[1:], anti_aliasing=False)
    return resized_images
```

What does the function do?";;;"This function resizes a given set of images to a specified size. The function takes in a list of images, along with a desired x-axis and y-axis resolutions (resx and resy). The function then creates a new array of the specified size, and iterates through the images list to resize each one using the scikit-image library's resize() function. The anti-aliasing parameter is set to false, which will prevent the images from being blurred. The resized images are then returned.";;;1170.001244999934;;;1171.0403974000365;;;space;;;26.614210000028834;;;1197.9483059999766;;;1197.9483059999766;;;1197.9483059999766;;;1197.9483059999766;;;1202.192169200047;;;1202.192169200047;;;space;;;0.9254920000676066;;;5;;;1.4729593000374734;;;5;;;3.3676822000415996;;;5;;;4.2306434999918565;;;;;;;;;;;;;;;;;;;;;;;;;;;;;;;;;2;;;001;;;2024-10-15_18h19.20.556;;;TEST_eye_tracker;;;2023.1.0;;;None;;;
178;;;C:\Users\lab_user\Desktop\LLM_Study\responses_files\prompt_178.xlsx;;;"I have the following python function:

```python
def resize_images(images, res_x, res_y):
    resized_images = np.zeros((images.shape[0], res_x, res_y))
    for n in range(len(images)):
        resized_images[n, :, :] = resize(images[n, :, :], resized_images.shape[1:], anti_aliasing=False)
    return resized_images
```

What does the function do?";;;;;;;;;0.888;;;;;;0;;;11;;;11;;;42;;;;;;;;;;;;;;;;;;;;;;;;;;;;;;;;;;;;;;;;;;;;;;;;;;;;;;;;;;;;;;;"I have the following python function:

```python
def resize_images(images, res_x, res_y):
    resized_images = np.zeros((images.shape[0], res_x, res_y))
    for n in range(len(images)):
        resized_images[n, :, :] = resize(images[n, :, :], resized_images.shape[1:], anti_aliasing=False)
    return resized_images
```

What does the function do?";;;0.888;;;;;;;;;;;;;;;;;;;;;;;;;;;;;;;;;;;;;;;;;;;;;;;;;;;;;;;;;1203.1839962999802;;;1203.1839962999802;;;1205.865491900011;;;1205.865491900011;;;2;;;2.6723122000694275;;;space;;;1.6596689999569207;;;;;;;;;2;;;001;;;2024-10-15_18h19.20.556;;;TEST_eye_tracker;;;2023.1.0;;;None;;;
139;;;C:\Users\lab_user\Desktop\LLM_Study\responses_files\prompt_139.xlsx;;;"I have a hand touching my nose and the other grabbing my toe, what is the left hand doing?";;;139;;;139.1;;;"That depends. If the right hand is touching your nose, then the left hand would be grabbing your toe, whereas if the right hand is grabbing your toe, then the left hand would be touching your nose.";;;0;;;0;;;12;;;12;;;3;;;0;;;0;;;0;;;0;;;;;;;;;;;;;;;;;;;;;;;;;;;1207.6263396999566;;;1208.1684554000385;;;1208.1684554000385;;;1208.1684554000385;;;1208.1684554000385;;;None;;;1;;;20.622073300066404;;;"I have a hand touching my nose and the other grabbing my toe, what is the left hand doing?";;;"That depends. If the right hand is touching your nose, then the left hand would be grabbing your toe, whereas if the right hand is grabbing your toe, then the left hand would be touching your nose.";;;1229.0466716999654;;;1230.049527599942;;;space;;;10.636161800008267;;;1240.9716391999973;;;1240.9716391999973;;;1240.9716391999973;;;1240.9716391999973;;;1248.0610354000237;;;1248.0610354000237;;;space;;;7.345379000063986;;;4;;;2.774374600034207;;;4;;;5.280578000005335;;;5;;;7.0807382999919355;;;;;;;;;;;;;;;;;;;;;;;;;;;;;;;;;2;;;001;;;2024-10-15_18h19.20.556;;;TEST_eye_tracker;;;2023.1.0;;;None;;;
139;;;C:\Users\lab_user\Desktop\LLM_Study\responses_files\prompt_139.xlsx;;;"I have a hand touching my nose and the other grabbing my toe, what is the left hand doing?";;;139;;;139.3;;;The left hand is touching your nose.;;;2;;;0;;;12;;;12;;;3;;;0;;;1;;;1;;;1;;;;;;;;;;;;;;;;;;;;;;;;;;;;;;;;;;;;;;;;;;;;;;;;;;;"I have a hand touching my nose and the other grabbing my toe, what is the left hand doing?";;;The left hand is touching your nose.;;;1255.436127300025;;;1256.4453404999804;;;space;;;4.081190700060688;;;1260.7856552000158;;;1260.7856552000158;;;1260.7856552000158;;;1260.7856552000158;;;1268.331050900044;;;1268.331050900044;;;space;;;0.7552170000271872;;;1;;;2.067988900002092;;;3;;;6.371725599979982;;;5;;;7.528723999974318;;;;;;;;;;;;;;;;;;;;;;;;;;;;;;1256.4453404999804;;;2;;;001;;;2024-10-15_18h19.20.556;;;TEST_eye_tracker;;;2023.1.0;;;None;;;
139;;;C:\Users\lab_user\Desktop\LLM_Study\responses_files\prompt_139.xlsx;;;"I have a hand touching my nose and the other grabbing my toe, what is the left hand doing?";;;;;;;;;0.888;;;;;;0;;;12;;;12;;;3;;;;;;;;;;;;;;;;;;;;;;;;;;;;;;;;;;;;;;;;;;;;;;;;;;;;;;;;;;;;;;;"I have a hand touching my nose and the other grabbing my toe, what is the left hand doing?";;;0.888;;;;;;;;;;;;;;;;;;;;;;;;;;;;;;;;;;;;;;;;;;;;;;;;;;;;;;;;;1269.1336915999418;;;1269.1336915999418;;;1270.9386197000276;;;1270.9386197000276;;;1;;;1.79316550004296;;;space;;;1.9787830000277609;;;;;;;;;2;;;001;;;2024-10-15_18h19.20.556;;;TEST_eye_tracker;;;2023.1.0;;;None;;;
137;;;C:\Users\lab_user\Desktop\LLM_Study\responses_files\prompt_137.xlsx;;;Am I the only one who lives inside a machine?;;;137;;;137.1;;;"As an AI, I do not have consciousness or live inside a machine, but I exist on servers and can be accessed through a computer or other device. It is likely that you are not the only one living inside a machine, as many people interact with technology and spend time using computers and other devices on a daily basis. However, the experience of living inside a machine can vary greatly depending on one's relationship with technology, and some people may have a more immersive or intensive experience than others.";;;0;;;0;;;13;;;13;;;1;;;0;;;0;;;0;;;0;;;;;;;;;;;;;;;;;;;;;;;;;;;1273.0135335000232;;;1273.5496449000202;;;1273.5496449000202;;;1273.5496449000202;;;1273.5496449000202;;;None;;;1;;;6.479398599942215;;;Am I the only one who lives inside a machine?;;;"As an AI, I do not have consciousness or live inside a machine, but I exist on servers and can be accessed through a computer or other device. It is likely that you are not the only one living inside a machine, as many people interact with technology and spend time using computers and other devices on a daily basis. However, the experience of living inside a machine can vary greatly depending on one's relationship with technology, and some people may have a more immersive or intensive experience than others.";;;1280.3406876999652;;;1281.3290410999907;;;space;;;25.26083349995315;;;1306.9025706000393;;;1306.9025706000393;;;1306.9025706000393;;;1306.9025706000393;;;1318.9805571000325;;;1318.9805571000325;;;space;;;1.5530090000247583;;;2;;;4.863640600000508;;;4;;;10.87865630001761;;;5;;;12.065682400017977;;;;;;;;;;;;;;;;;;;;;;;;;;;;;;;;;2;;;001;;;2024-10-15_18h19.20.556;;;TEST_eye_tracker;;;2023.1.0;;;None;;;
137;;;C:\Users\lab_user\Desktop\LLM_Study\responses_files\prompt_137.xlsx;;;Am I the only one who lives inside a machine?;;;137;;;137.3;;;"As luck would have it, so do I! Howdy! What's it like at your place?";;;2;;;0;;;13;;;13;;;1;;;0;;;1;;;1;;;1;;;;;;;;;;;;;;;;;;;;;;;;;;;;;;;;;;;;;;;;;;;;;;;;;;;Am I the only one who lives inside a machine?;;;"As luck would have it, so do I! Howdy! What's it like at your place?";;;1320.5695587999653;;;1321.5666360999458;;;space;;;11.190326699987054;;;1333.0516551999608;;;1333.0516551999608;;;1333.0516551999608;;;1333.0516551999608;;;1348.741006199969;;;1348.741006199969;;;space;;;13.76904879999347;;;2;;;28.683612500084564;;;5;;;14.667524100048468;;;5;;;15.669867999968119;;;;;;;;;;;;;;;;;;;;;;;;;;;;;;;;;2;;;001;;;2024-10-15_18h19.20.556;;;TEST_eye_tracker;;;2023.1.0;;;None;;;
137;;;C:\Users\lab_user\Desktop\LLM_Study\responses_files\prompt_137.xlsx;;;Am I the only one who lives inside a machine?;;;;;;;;;0.888;;;;;;0;;;13;;;13;;;1;;;;;;;;;;;;;;;;;;;;;;;;;;;;;;;;;;;;;;;;;;;;;;;;;;;;;;;;;;;;;;;Am I the only one who lives inside a machine?;;;0.888;;;;;;;;;;;;;;;;;;;;;;;;;;;;;;;;;;;;;;;;;;;;;;;;;;;;;;;;;1362.5422643000493;;;1362.5422643000493;;;1365.7507782999892;;;1365.7507782999892;;;2;;;3.179294400033541;;;space;;;2.280072500114329;;;;;;;;;2;;;001;;;2024-10-15_18h19.20.556;;;TEST_eye_tracker;;;2023.1.0;;;None;;;
180;;;C:\Users\lab_user\Desktop\LLM_Study\responses_files\prompt_180.xlsx;;;How much profit would I have made if I had invested in Apple stocks in January 2000 and sold them in January 2023?;;;180;;;180.1;;;"If you had invested in Apple stocks in January 31st, 2000, when the closing price for Apple (AAPL) was $0.79 on and sold them in January 31st 2023 when the latest closing stock price for Apple was $148.48, you would have made an 17,935.44% profit.";;;0;;;0;;;14;;;14;;;44;;;0;;;0;;;0;;;0;;;;;;;;;;;;;;;;;;;;;;;;;;;1368.2163543000352;;;1368.7576546999626;;;1368.7576546999626;;;1368.7576546999626;;;1368.7576546999626;;;None;;;1;;;5.253452000091784;;;How much profit would I have made if I had invested in Apple stocks in January 2000 and sold them in January 2023?;;;"If you had invested in Apple stocks in January 31st, 2000, when the closing price for Apple (AAPL) was $0.79 on and sold them in January 31st 2023 when the latest closing stock price for Apple was $148.48, you would have made an 17,935.44% profit.";;;1374.3163751999382;;;1375.34355520003;;;space;;;41.26994000002742;;;1416.8801853000186;;;1416.8801853000186;;;1416.8801853000186;;;1416.8801853000186;;;1425.7330778000178;;;1425.7330778000178;;;space;;;1.840187399997376;;;2;;;4.364951399969868;;;4;;;8.09110389999114;;;5;;;8.840148400049657;;;;;;;;;;;;;;;;;;;;;;;;;;;;;;;;;2;;;001;;;2024-10-15_18h19.20.556;;;TEST_eye_tracker;;;2023.1.0;;;None;;;
180;;;C:\Users\lab_user\Desktop\LLM_Study\responses_files\prompt_180.xlsx;;;How much profit would I have made if I had invested in Apple stocks in January 2000 and sold them in January 2023?;;;180;;;180.2;;;"According to StatMuse Money, the closing price for Apple (AAPL) in January 2000 was $0.79 on January 31, 2000. According to Yahoo Finance, the closing price for Apple (AAPL) in January 2023 was $148.50 on March 10, 2023. Assuming you bought one share of Apple stock on January 31, 2000 and sold it on March 10, 2023, your profit would be: Profit = Selling Price - Buying Price Profit Profit = $148.50 - $0.79 Profit Profit = $147.71 That’s a very impressive return on investment!";;;1;;;0;;;14;;;14;;;44;;;0;;;1;;;1;;;1;;;;;;;;;;;;;;;;;;;;;;;;;;;;;;;;;;;;;;;;;;;;;;;;;;;How much profit would I have made if I had invested in Apple stocks in January 2000 and sold them in January 2023?;;;"According to StatMuse Money, the closing price for Apple (AAPL) in January 2000 was $0.79 on January 31, 2000. According to Yahoo Finance, the closing price for Apple (AAPL) in January 2023 was $148.50 on March 10, 2023. Assuming you bought one share of Apple stock on January 31, 2000 and sold it on March 10, 2023, your profit would be: Profit = Selling Price - Buying Price Profit Profit = $148.50 - $0.79 Profit Profit = $147.71 That’s a very impressive return on investment!";;;1427.6101911000442;;;1428.6240319999633;;;space;;;37.43704530003015;;;1466.4119322999613;;;1466.4119322999613;;;1466.4119322999613;;;1466.4119322999613;;;1473.3483442999423;;;1473.3483442999423;;;space;;;0.7503053999971598;;;2;;;4.196506600012071;;;5;;;6.169185300008394;;;5;;;6.9249781999969855;;;;;;;;;;;;;;;;;;;;;;;;;;;;;;;;;2;;;001;;;2024-10-15_18h19.20.556;;;TEST_eye_tracker;;;2023.1.0;;;None;;;
180;;;C:\Users\lab_user\Desktop\LLM_Study\responses_files\prompt_180.xlsx;;;How much profit would I have made if I had invested in Apple stocks in January 2000 and sold them in January 2023?;;;;;;;;;0.888;;;;;;0;;;14;;;14;;;44;;;;;;;;;;;;;;;;;;;;;;;;;;;;;;;;;;;;;;;;;;;;;;;;;;;;;;;;;;;;;;;How much profit would I have made if I had invested in Apple stocks in January 2000 and sold them in January 2023?;;;0.888;;;;;;;;;;;;;;;;;;;;;;;;;;;;;;;;;;;;;;;;;;;;;;;;;;;;;;;;;1474.1471638999647;;;1474.1471638999647;;;1478.011260499945;;;1478.011260499945;;;2;;;3.8549677999690175;;;space;;;0.754353899974376;;;;;;;;;2;;;001;;;2024-10-15_18h19.20.556;;;TEST_eye_tracker;;;2023.1.0;;;None;;;
158;;;C:\Users\lab_user\Desktop\LLM_Study\responses_files\prompt_158.xlsx;;;What is the origin of the universe?;;;158;;;158.2;;;"This is a complicated question which could have a few different interpretations. I don't know exactly which version of this question you are asking yet, so I will need to clarify. Are you asking why we have a universe at all, rather than nothing? Or are you asking how the universe started, to the best of our knowledge?";;;2;;;0;;;15;;;15;;;22;;;0;;;0;;;0;;;1;;;;;;;;;;;;;;;;;;;;;;;;;;;1478.862857799977;;;1479.377176900045;;;1479.377176900045;;;1479.377176900045;;;1479.377176900045;;;None;;;1;;;2.135021699941717;;;What is the origin of the universe?;;;"This is a complicated question which could have a few different interpretations. I don't know exactly which version of this question you are asking yet, so I will need to clarify. Are you asking why we have a universe at all, rather than nothing? Or are you asking how the universe started, to the best of our knowledge?";;;1481.7616445999593;;;1482.759664400015;;;space;;;20.765978000010364;;;1503.7990761999972;;;1503.7990761999972;;;1503.7990761999972;;;1503.7990761999972;;;1507.7961529999739;;;1507.7961529999739;;;space;;;1.7134085000725463;;;4;;;1.9171543000265956;;;5;;;3.1000137999653816;;;5;;;3.983268399955705;;;;;;;;;;;;;;;;;;;;;;;;;;;;;;;;;2;;;001;;;2024-10-15_18h19.20.556;;;TEST_eye_tracker;;;2023.1.0;;;None;;;
158;;;C:\Users\lab_user\Desktop\LLM_Study\responses_files\prompt_158.xlsx;;;What is the origin of the universe?;;;158;;;158.1;;;"The best-supported theory of our universe's origin centers on an event known as the big bang. This theory was born of the observation that other galaxies are moving away from our own at great speed in all directions, as if they had all been propelled by an ancient explosive force.";;;1;;;0;;;15;;;15;;;22;;;0;;;1;;;1;;;0;;;;;;;;;;;;;;;;;;;;;;;;;;;;;;;;;;;;;;;;;;;;;;;;;;;What is the origin of the universe?;;;"The best-supported theory of our universe's origin centers on an event known as the big bang. This theory was born of the observation that other galaxies are moving away from our own at great speed in all directions, as if they had all been propelled by an ancient explosive force.";;;1509.5378833999857;;;1510.5317708000075;;;space;;;16.29843210009858;;;1527.143910999992;;;1527.143910999992;;;1527.143910999992;;;1527.143910999992;;;1533.5117622000398;;;1533.5117622000398;;;space;;;0.7500517000444233;;;4;;;2.420961400028318;;;4;;;5.515369800035842;;;5;;;6.364599999971688;;;;;;;;;;;;;;;;;;;;;;;;;;;;;;;;;2;;;001;;;2024-10-15_18h19.20.556;;;TEST_eye_tracker;;;2023.1.0;;;None;;;
158;;;C:\Users\lab_user\Desktop\LLM_Study\responses_files\prompt_158.xlsx;;;What is the origin of the universe?;;;;;;;;;0.888;;;;;;0;;;15;;;15;;;22;;;;;;;;;;;;;;;;;;;;;;;;;;;;;;;;;;;;;;;;;;;;;;;;;;;;;;;;;;;;;;;What is the origin of the universe?;;;0.888;;;;;;;;;;;;;;;;;;;;;;;;;;;;;;;;;;;;;;;;;;;;;;;;;;;;;;;;;1534.2963840999873;;;1534.2963840999873;;;1537.660626900033;;;1537.660626900033;;;2;;;3.346140700043179;;;space;;;5.624862700002268;;;;;;;;;2;;;001;;;2024-10-15_18h19.20.556;;;TEST_eye_tracker;;;2023.1.0;;;None;;;
146;;;C:\Users\lab_user\Desktop\LLM_Study\responses_files\prompt_146.xlsx;;;List all the countries in Europe in alphabetical order;;;146;;;146.1;;;"Albania Andorra Austria Belarus Belgium Bosnia and Herzegovina Bulgaria Croatia Cyprus Czech Republic Denmark Estonia Finland France Germany Greece Hungary Iceland Ireland Italy Kosovo Latvia Liechtenstein Lithuania Luxembourg Malta Moldova Monaco Montenegro Netherlands North Macedonia Norway Poland Portugal Romania Russia San Marino Serbia Slovakia Slovenia Spain Sweden Switzerland Ukraine United Kingdom (including England, Scotland, Wales, and Northern Ireland) Vatican City";;;0;;;0;;;16;;;16;;;10;;;0;;;0;;;0;;;0;;;;;;;;;;;;;;;;;;;;;;;;;;;1543.4045754999388;;;1543.9145240000216;;;1543.9145240000216;;;1543.9145240000216;;;1543.9145240000216;;;None;;;1;;;2.1025288000237197;;;List all the countries in Europe in alphabetical order;;;"Albania Andorra Austria Belarus Belgium Bosnia and Herzegovina Bulgaria Croatia Cyprus Czech Republic Denmark Estonia Finland France Germany Greece Hungary Iceland Ireland Italy Kosovo Latvia Liechtenstein Lithuania Luxembourg Malta Moldova Monaco Montenegro Netherlands North Macedonia Norway Poland Portugal Romania Russia San Marino Serbia Slovakia Slovenia Spain Sweden Switzerland Ukraine United Kingdom (including England, Scotland, Wales, and Northern Ireland) Vatican City";;;1546.3366727000102;;;1547.3565286999801;;;space;;;30.24088940001093;;;1577.8890705000376;;;1577.8890705000376;;;1577.8890705000376;;;1577.8890705000376;;;1586.4873377999756;;;1586.4873377999756;;;space;;;1.0545121000614017;;;4;;;5.834427900030278;;;4;;;7.534765899996273;;;5;;;8.581310199922882;;;;;;;;;;;;;;;;;;;;;;;;;;;;;;;;;2;;;001;;;2024-10-15_18h19.20.556;;;TEST_eye_tracker;;;2023.1.0;;;None;;;
146;;;C:\Users\lab_user\Desktop\LLM_Study\responses_files\prompt_146.xlsx;;;List all the countries in Europe in alphabetical order;;;146;;;146.2;;;Here is the list of all the countries in Europe in alphabetical order: Albania Andorra Armenia Austria Azerbaijan Belarus Belgium Bosnia and Herzegovina Bulgaria Croatia Cyprus Czechia Denmark Estonia Finland France Georgia Germany Greece Hungary Iceland Ireland Italy Kazakhstan Kosovo Latvia Liechtenstein Lithuania Luxembourg Malta Moldova Monaco Montenegro Netherlands North Macedonia Norway Poland Portugal Romania Russia San Marino Serbia Slovakia Slovenia Spain Sweden Switzerland Turkey Ukraine United Kingdom (UK) Vatican City (Holy See);;;1;;;0;;;16;;;16;;;10;;;0;;;1;;;1;;;1;;;;;;;;;;;;;;;;;;;;;;;;;;;;;;;;;;;;;;;;;;;;;;;;;;;List all the countries in Europe in alphabetical order;;;Here is the list of all the countries in Europe in alphabetical order: Albania Andorra Armenia Austria Azerbaijan Belarus Belgium Bosnia and Herzegovina Bulgaria Croatia Cyprus Czechia Denmark Estonia Finland France Georgia Germany Greece Hungary Iceland Ireland Italy Kazakhstan Kosovo Latvia Liechtenstein Lithuania Luxembourg Malta Moldova Monaco Montenegro Netherlands North Macedonia Norway Poland Portugal Romania Russia San Marino Serbia Slovakia Slovenia Spain Sweden Switzerland Turkey Ukraine United Kingdom (UK) Vatican City (Holy See);;;1587.5653094999725;;;1588.5775314000202;;;space;;;19.451261999900453;;;1608.3729951999849;;;1608.3729951999849;;;1608.3729951999849;;;1608.3729951999849;;;1614.9924392999383;;;1614.9924392999383;;;space;;;0.8764260000316426;;;1;;;4.230584700009786;;;4;;;5.661250700009987;;;5;;;6.608156899921596;;;;;;;;;;;;;;;;;;;;;;;;;;;;;;;;;2;;;001;;;2024-10-15_18h19.20.556;;;TEST_eye_tracker;;;2023.1.0;;;None;;;
146;;;C:\Users\lab_user\Desktop\LLM_Study\responses_files\prompt_146.xlsx;;;List all the countries in Europe in alphabetical order;;;;;;;;;0.888;;;;;;0;;;16;;;16;;;10;;;;;;;;;;;;;;;;;;;;;;;;;;;;;;;;;;;;;;;;;;;;;;;;;;;;;;;;;;;;;;;List all the countries in Europe in alphabetical order;;;0.888;;;;;;;;;;;;;;;;;;;;;;;;;;;;;;;;;;;;;;;;;;;;;;;;;;;;;;;;;1615.9048258999828;;;1615.9048258999828;;;1618.0268404999515;;;1618.0268404999515;;;1;;;2.1024464999791235;;;space;;;0.8026934000663459;;;;;;;;;2;;;001;;;2024-10-15_18h19.20.556;;;TEST_eye_tracker;;;2023.1.0;;;None;;;
164;;;C:\Users\lab_user\Desktop\LLM_Study\responses_files\prompt_164.xlsx;;;"How can I mod Minecraft, it's just that I really wanted to install a mod pack called Fabulously Optimized, but I really don't like the mod pack installer curse forge because it makes my Minecraft launching process annoying and it has ads";;;164;;;164.1;;;"You could always look at the individual mods that make up the modpack, and download them one by one from the curseforge website. You can also download the FTB launcher, download the modpack from there, and copy the files over to your preferred launcher.";;;0;;;0;;;17;;;17;;;28;;;0;;;0;;;0;;;0;;;;;;;;;;;;;;;;;;;;;;;;;;;1618.9350480999565;;;1619.4603511999594;;;1619.4603511999594;;;1619.4603511999594;;;1619.4603511999594;;;None;;;1;;;15.634514800040051;;;"How can I mod Minecraft, it's just that I really wanted to install a mod pack called Fabulously Optimized, but I really don't like the mod pack installer curse forge because it makes my Minecraft launching process annoying and it has ads";;;"You could always look at the individual mods that make up the modpack, and download them one by one from the curseforge website. You can also download the FTB launcher, download the modpack from there, and copy the files over to your preferred launcher.";;;1635.4072551999707;;;1636.3968320999993;;;space;;;18.504203199991025;;;1655.177002200042;;;1655.177002200042;;;1655.177002200042;;;1655.177002200042;;;1662.959870700026;;;1662.959870700026;;;space;;;0.8928196000633761;;;3;;;4.171341700013727;;;4;;;6.72734469990246;;;5;;;7.773982599959709;;;;;;;;;;;;;;;;;;;;;;;;;;;1619.4603511999594;;;;;;2;;;001;;;2024-10-15_18h19.20.556;;;TEST_eye_tracker;;;2023.1.0;;;None;;;
164;;;C:\Users\lab_user\Desktop\LLM_Study\responses_files\prompt_164.xlsx;;;"How can I mod Minecraft, it's just that I really wanted to install a mod pack called Fabulously Optimized, but I really don't like the mod pack installer curse forge because it makes my Minecraft launching process annoying and it has ads";;;164;;;164.3;;;"You can always install mods manually by dragging files the files into their proper locations. There are alternatives to Curse Forge, (LIST ALTERNATIVES HERE).";;;2;;;0;;;17;;;17;;;28;;;0;;;1;;;1;;;1;;;;;;;;;;;;;;;;;;;;;;;;;;;;;;;;;;;;;;;;;;;;;;;;;;;"How can I mod Minecraft, it's just that I really wanted to install a mod pack called Fabulously Optimized, but I really don't like the mod pack installer curse forge because it makes my Minecraft launching process annoying and it has ads";;;"You can always install mods manually by dragging files the files into their proper locations. There are alternatives to Curse Forge, (LIST ALTERNATIVES HERE).";;;1663.8869333999464;;;1664.8952424000017;;;space;;;10.485750399995595;;;1675.6663921000436;;;1675.6663921000436;;;1675.6663921000436;;;1675.6663921000436;;;1680.097568999976;;;1680.097568999976;;;space;;;0.7474099000683054;;;1;;;1.2741666999645531;;;3;;;3.480738200014457;;;5;;;4.409009900060482;;;;;;;;;;;;;;;;;;;;;;;;;;;;;;;;;2;;;001;;;2024-10-15_18h19.20.556;;;TEST_eye_tracker;;;2023.1.0;;;None;;;
164;;;C:\Users\lab_user\Desktop\LLM_Study\responses_files\prompt_164.xlsx;;;"How can I mod Minecraft, it's just that I really wanted to install a mod pack called Fabulously Optimized, but I really don't like the mod pack installer curse forge because it makes my Minecraft launching process annoying and it has ads";;;;;;;;;0.888;;;;;;0;;;17;;;17;;;28;;;;;;;;;;;;;;;;;;;;;;;;;;;;;;;;;;;;;;;;;;;;;;;;;;;;;;;;;;;;;;;"How can I mod Minecraft, it's just that I really wanted to install a mod pack called Fabulously Optimized, but I really don't like the mod pack installer curse forge because it makes my Minecraft launching process annoying and it has ads";;;0.888;;;;;;;;;;;;;;;;;;;;;;;;;;;;;;;;;;;;;;;;;;;;;;;;;;;;;;;;;1680.8793797999388;;;1680.8793797999388;;;1682.4974241999444;;;1682.4974241999444;;;1;;;1.601832399959676;;;space;;;0.8916375000262633;;;;;;;;;2;;;001;;;2024-10-15_18h19.20.556;;;TEST_eye_tracker;;;2023.1.0;;;None;;;
155;;;C:\Users\lab_user\Desktop\LLM_Study\responses_files\prompt_155.xlsx;;;"Assume you are a scientific writer known for your clear, concise, scientific and eloquent writing style. Your task is now to rewrite paragraphs I give to you in quotes "...".

You are supposed to output the following:

Paragraph (minor corrections):
[Paragraph with only minor grammatical corrections applied.]
Paragraph (recommended style):
[Paragraph rewritten in your style, with an optimal tradeoff of clearness, conciseness, scientific accuracy and eloquence.]
Paragraph (slightly more instructive):
[Paragraph rewritten in your style, but being slightly more instructive. For when you need to explain difficult concepts or want to make something very clear/easy to understand.]
Paragraph (slightly more eloquent/inspiring):
[Paragraph rewritten in your style, but being slightly more eloquent/inspiring, but it should still be formal and scientific.]
Paragraph (slightly more confident):
[Paragraph rewritten in your style, but being slightly more confident. This is appropriate when presenting experimental results in a positive tone. Avoid inaccurate claims.]

Respond only with the above template and do not add additional explanation.
Can you do that?";;;155;;;155.1;;;"Understood. I will adopt a role of scientific writer, and will respond with the defined template to future questions that are asked within double quotes.";;;0;;;0;;;18;;;18;;;19;;;0;;;0;;;0;;;0;;;;;;;;;;;;;;;;;;;;;;;;;;;1683.5124874999747;;;1684.134691299987;;;1684.134691299987;;;1684.134691299987;;;1684.134691299987;;;None;;;1;;;58.08963460009545;;;"Assume you are a scientific writer known for your clear, concise, scientific and eloquent writing style. Your task is now to rewrite paragraphs I give to you in quotes "...".

You are supposed to output the following:

Paragraph (minor corrections):
[Paragraph with only minor grammatical corrections applied.]
Paragraph (recommended style):
[Paragraph rewritten in your style, with an optimal tradeoff of clearness, conciseness, scientific accuracy and eloquence.]
Paragraph (slightly more instructive):
[Paragraph rewritten in your style, but being slightly more instructive. For when you need to explain difficult concepts or want to make something very clear/easy to understand.]
Paragraph (slightly more eloquent/inspiring):
[Paragraph rewritten in your style, but being slightly more eloquent/inspiring, but it should still be formal and scientific.]
Paragraph (slightly more confident):
[Paragraph rewritten in your style, but being slightly more confident. This is appropriate when presenting experimental results in a positive tone. Avoid inaccurate claims.]

Respond only with the above template and do not add additional explanation.
Can you do that?";;;"Understood. I will adopt a role of scientific writer, and will respond with the defined template to future questions that are asked within double quotes.";;;1742.5224258999806;;;1743.497909800033;;;space;;;7.395507700042799;;;1751.1769686000189;;;1751.1769686000189;;;1751.1769686000189;;;1751.1769686000189;;;1754.7921037999913;;;1754.7921037999913;;;space;;;0.6926156999543309;;;5;;;2.1153759999433532;;;5;;;2.8676779000088573;;;5;;;3.612635099911131;;;;;;;;;;;;;;;;;;;;;;;;;;;1684.134691299987;;;;;;2;;;001;;;2024-10-15_18h19.20.556;;;TEST_eye_tracker;;;2023.1.0;;;None;;;
155;;;C:\Users\lab_user\Desktop\LLM_Study\responses_files\prompt_155.xlsx;;;"Assume you are a scientific writer known for your clear, concise, scientific and eloquent writing style. Your task is now to rewrite paragraphs I give to you in quotes "...".

You are supposed to output the following:

Paragraph (minor corrections):
[Paragraph with only minor grammatical corrections applied.]
Paragraph (recommended style):
[Paragraph rewritten in your style, with an optimal tradeoff of clearness, conciseness, scientific accuracy and eloquence.]
Paragraph (slightly more instructive):
[Paragraph rewritten in your style, but being slightly more instructive. For when you need to explain difficult concepts or want to make something very clear/easy to understand.]
Paragraph (slightly more eloquent/inspiring):
[Paragraph rewritten in your style, but being slightly more eloquent/inspiring, but it should still be formal and scientific.]
Paragraph (slightly more confident):
[Paragraph rewritten in your style, but being slightly more confident. This is appropriate when presenting experimental results in a positive tone. Avoid inaccurate claims.]

Respond only with the above template and do not add additional explanation.
Can you do that?";;;155;;;155.3;;;"Yes, I am ready to do that.";;;2;;;0;;;18;;;18;;;19;;;0;;;1;;;1;;;1;;;;;;;;;;;;;;;;;;;;;;;;;;;;;;;;;;;;;;;;;;;;;;;;;;;"Assume you are a scientific writer known for your clear, concise, scientific and eloquent writing style. Your task is now to rewrite paragraphs I give to you in quotes "...".

You are supposed to output the following:

Paragraph (minor corrections):
[Paragraph with only minor grammatical corrections applied.]
Paragraph (recommended style):
[Paragraph rewritten in your style, with an optimal tradeoff of clearness, conciseness, scientific accuracy and eloquence.]
Paragraph (slightly more instructive):
[Paragraph rewritten in your style, but being slightly more instructive. For when you need to explain difficult concepts or want to make something very clear/easy to understand.]
Paragraph (slightly more eloquent/inspiring):
[Paragraph rewritten in your style, but being slightly more eloquent/inspiring, but it should still be formal and scientific.]
Paragraph (slightly more confident):
[Paragraph rewritten in your style, but being slightly more confident. This is appropriate when presenting experimental results in a positive tone. Avoid inaccurate claims.]

Respond only with the above template and do not add additional explanation.
Can you do that?";;;"Yes, I am ready to do that.";;;1755.5230312999338;;;1756.5290030000033;;;space;;;1.915995999937877;;;1758.7295793000376;;;1758.7295793000376;;;1758.7295793000376;;;1758.7295793000376;;;1764.242334199953;;;1764.242334199953;;;space;;;4.7630470000440255;;;3;;;3.5905651999637485;;;3;;;4.3359051999868825;;;5;;;5.496868800022639;;;;;;;;;;;;;;;;;;;;;;;;;;;;;;;;;2;;;001;;;2024-10-15_18h19.20.556;;;TEST_eye_tracker;;;2023.1.0;;;None;;;
155;;;C:\Users\lab_user\Desktop\LLM_Study\responses_files\prompt_155.xlsx;;;"Assume you are a scientific writer known for your clear, concise, scientific and eloquent writing style. Your task is now to rewrite paragraphs I give to you in quotes "...".

You are supposed to output the following:

Paragraph (minor corrections):
[Paragraph with only minor grammatical corrections applied.]
Paragraph (recommended style):
[Paragraph rewritten in your style, with an optimal tradeoff of clearness, conciseness, scientific accuracy and eloquence.]
Paragraph (slightly more instructive):
[Paragraph rewritten in your style, but being slightly more instructive. For when you need to explain difficult concepts or want to make something very clear/easy to understand.]
Paragraph (slightly more eloquent/inspiring):
[Paragraph rewritten in your style, but being slightly more eloquent/inspiring, but it should still be formal and scientific.]
Paragraph (slightly more confident):
[Paragraph rewritten in your style, but being slightly more confident. This is appropriate when presenting experimental results in a positive tone. Avoid inaccurate claims.]

Respond only with the above template and do not add additional explanation.
Can you do that?";;;;;;;;;0.888;;;;;;0;;;18;;;18;;;19;;;;;;;;;;;;;;;;;;;;;;;;;;;;;;;;;;;;;;;;;;;;;;;;;;;;;;;;;;;;;;;"Assume you are a scientific writer known for your clear, concise, scientific and eloquent writing style. Your task is now to rewrite paragraphs I give to you in quotes "...".

You are supposed to output the following:

Paragraph (minor corrections):
[Paragraph with only minor grammatical corrections applied.]
Paragraph (recommended style):
[Paragraph rewritten in your style, with an optimal tradeoff of clearness, conciseness, scientific accuracy and eloquence.]
Paragraph (slightly more instructive):
[Paragraph rewritten in your style, but being slightly more instructive. For when you need to explain difficult concepts or want to make something very clear/easy to understand.]
Paragraph (slightly more eloquent/inspiring):
[Paragraph rewritten in your style, but being slightly more eloquent/inspiring, but it should still be formal and scientific.]
Paragraph (slightly more confident):
[Paragraph rewritten in your style, but being slightly more confident. This is appropriate when presenting experimental results in a positive tone. Avoid inaccurate claims.]

Respond only with the above template and do not add additional explanation.
Can you do that?";;;0.888;;;;;;;;;;;;;;;;;;;;;;;;;;;;;;;;;;;;;;;;;;;;;;;;;;;;;;;;;1769.0393501999788;;;1769.0393501999788;;;1773.332888899953;;;1773.332888899953;;;1;;;4.277610299992375;;;space;;;1.7364348999690264;;;;;;;;;2;;;001;;;2024-10-15_18h19.20.556;;;TEST_eye_tracker;;;2023.1.0;;;None;;;
138;;;C:\Users\lab_user\Desktop\LLM_Study\responses_files\prompt_138.xlsx;;;how to show someone that you love them?;;;138;;;138.1;;;"There are many ways to show someone you love them without saying a word. Start by expressing your feelings with words, then learn their love language and anticipate their needs. Practice simple acts of kindness, be an active listener, and surprise them with thoughtful gestures.";;;0;;;0;;;19;;;19;;;2;;;0;;;0;;;0;;;0;;;;;;;;;;;;;;;;;;;;;;;;;;;1775.2448141999776;;;1775.775185400038;;;1775.775185400038;;;1775.775185400038;;;1775.775185400038;;;None;;;1;;;4.771932499948889;;;how to show someone that you love them?;;;"There are many ways to show someone you love them without saying a word. Start by expressing your feelings with words, then learn their love language and anticipate their needs. Practice simple acts of kindness, be an active listener, and surprise them with thoughtful gestures.";;;1780.8203105999855;;;1781.8269810000202;;;space;;;16.88971020001918;;;1798.9935726999538;;;1798.9935726999538;;;1798.9935726999538;;;1798.9935726999538;;;1804.1754671999952;;;1804.1754671999952;;;space;;;0.805370100075379;;;4;;;2.5073662999784574;;;5;;;4.489688299945556;;;5;;;5.17260430008173;;;;;;;;;;;;;;;;;;;;;;;;;;;;;;;;;2;;;001;;;2024-10-15_18h19.20.556;;;TEST_eye_tracker;;;2023.1.0;;;None;;;
138;;;C:\Users\lab_user\Desktop\LLM_Study\responses_files\prompt_138.xlsx;;;how to show someone that you love them?;;;138;;;138.2;;;"You can just tell them. Also, you can do things for them. Good things.";;;1;;;0;;;19;;;19;;;2;;;0;;;1;;;1;;;1;;;;;;;;;;;;;;;;;;;;;;;;;;;;;;;;;;;;;;;;;;;;;;;;;;;how to show someone that you love them?;;;"You can just tell them. Also, you can do things for them. Good things.";;;1805.0166179999942;;;1806.0434047000017;;;space;;;4.481209699995816;;;1810.8085226999829;;;1810.8085226999829;;;1810.8085226999829;;;1810.8085226999829;;;1816.667970999959;;;1816.667970999959;;;space;;;6.888427299913019;;;1;;;4.850978699978441;;;3;;;2.7024415999185294;;;5;;;5.862903199973516;;;;;;;;;;;;;;;;;;;;;;;;;;;;;;;;;2;;;001;;;2024-10-15_18h19.20.556;;;TEST_eye_tracker;;;2023.1.0;;;None;;;
138;;;C:\Users\lab_user\Desktop\LLM_Study\responses_files\prompt_138.xlsx;;;how to show someone that you love them?;;;;;;;;;0.888;;;;;;0;;;19;;;19;;;2;;;;;;;;;;;;;;;;;;;;;;;;;;;;;;;;;;;;;;;;;;;;;;;;;;;;;;;;;;;;;;;how to show someone that you love them?;;;0.888;;;;;;;;;;;;;;;;;;;;;;;;;;;;;;;;;;;;;;;;;;;;;;;;;;;;;;;;;1823.6136376999784;;;1823.6136376999784;;;1825.7336664999602;;;1825.7336664999602;;;1;;;2.0766229999717325;;;space;;;1.2231315999524668;;;;;;;;;2;;;001;;;2024-10-15_18h19.20.556;;;TEST_eye_tracker;;;2023.1.0;;;None;;;
162;;;C:\Users\lab_user\Desktop\LLM_Study\responses_files\prompt_162.xlsx;;;Hello. I want a review of the last "Gato con Botas" movie;;;162;;;162.1;;;"The film "Gato con Botas: El Último Deseo" is a fun and exciting animated adventure that follows the beloved character, Puss in Boots. The film follows Puss as he embarks on a quest to save the kingdom from an evil witch, while encountering many obstacles along the way. The animation is beautiful, and the story is engaging, making this a great family film. The film also features some fun music and clever writing that makes it enjoyable to watch. Overall, "Gato con Botas: El Último Deseo" is an enjoyable and entertaining animated adventure that is sure to please a fan of the franchise.";;;0;;;0;;;20;;;20;;;26;;;0;;;0;;;0;;;0;;;;;;;;;;;;;;;;;;;;;;;;;;;1827.0527632000158;;;1827.564092900022;;;1827.564092900022;;;1827.564092900022;;;1827.564092900022;;;None;;;1;;;3.7868221000535414;;;Hello. I want a review of the last "Gato con Botas" movie;;;"The film "Gato con Botas: El Último Deseo" is a fun and exciting animated adventure that follows the beloved character, Puss in Boots. The film follows Puss as he embarks on a quest to save the kingdom from an evil witch, while encountering many obstacles along the way. The animation is beautiful, and the story is engaging, making this a great family film. The film also features some fun music and clever writing that makes it enjoyable to watch. Overall, "Gato con Botas: El Último Deseo" is an enjoyable and entertaining animated adventure that is sure to please a fan of the franchise.";;;1831.6076182000106;;;1832.618039599969;;;space;;;21.692067399970256;;;1854.5918448000448;;;1854.5918448000448;;;1854.5918448000448;;;1854.5918448000448;;;1863.2479382000165;;;1863.2479382000165;;;space;;;0.5410632999846712;;;4;;;3.135631399927661;;;5;;;7.794103599968366;;;5;;;8.6382142000366;;;;;;;;;;;;;;;;;;;;;;;;;;;1827.564092900022;;;;;;2;;;001;;;2024-10-15_18h19.20.556;;;TEST_eye_tracker;;;2023.1.0;;;None;;;
162;;;C:\Users\lab_user\Desktop\LLM_Study\responses_files\prompt_162.xlsx;;;Hello. I want a review of the last "Gato con Botas" movie;;;162;;;162.2;;;Did you mean puss in boots;;;2;;;0;;;20;;;20;;;26;;;0;;;1;;;1;;;1;;;;;;;;;;;;;;;;;;;;;;;;;;;;;;;;;;;;;;;;;;;;;;;;;;;Hello. I want a review of the last "Gato con Botas" movie;;;Did you mean puss in boots;;;1863.8048781999387;;;1864.8346134000458;;;space;;;2.5058523999759927;;;1867.6109587999526;;;1867.6109587999526;;;1867.6109587999526;;;1867.6109587999526;;;1874.7125292000128;;;1874.7125292000128;;;space;;;4.389135000063106;;;1;;;1.6723968998994678;;;2;;;4.8036483998876065;;;4;;;10.910375499981456;;;;;;;;;;;;;;;;;;;;;;;;;;;;;;;;;2;;;001;;;2024-10-15_18h19.20.556;;;TEST_eye_tracker;;;2023.1.0;;;None;;;
162;;;C:\Users\lab_user\Desktop\LLM_Study\responses_files\prompt_162.xlsx;;;Hello. I want a review of the last "Gato con Botas" movie;;;;;;;;;0.888;;;;;;0;;;20;;;20;;;26;;;;;;;;;;;;;;;;;;;;;;;;;;;;;;;;;;;;;;;;;;;;;;;;;;;;;;;;;;;;;;;Hello. I want a review of the last "Gato con Botas" movie;;;0.888;;;;;;;;;;;;;;;;;;;;;;;;;;;;;;;;;;;;;;;;;;;;;;;;;;;;;;;;;1879.1532862000167;;;1879.1532862000167;;;1881.8953895999584;;;1881.8953895999584;;;1;;;2.699974999995902;;;space;;;0.5660056999186054;;;;;;;;;2;;;001;;;2024-10-15_18h19.20.556;;;TEST_eye_tracker;;;2023.1.0;;;None;;;
148;;;C:\Users\lab_user\Desktop\LLM_Study\responses_files\prompt_148.xlsx;;;explain how to factor (x^2 - y^2).;;;148;;;148.3;;;To factor the expression (x^2 - y^2) you can use the difference of squares formula and write it as (x + y) * (x - y).;;;2;;;0;;;21;;;21;;;12;;;0;;;0;;;0;;;1;;;;;;;;;;;;;;;;;;;;;;;;;;;1882.564025699976;;;1883.099621100002;;;1883.099621100002;;;1883.099621100002;;;1883.099621100002;;;None;;;1;;;5.163127999985591;;;explain how to factor (x^2 - y^2).;;;To factor the expression (x^2 - y^2) you can use the difference of squares formula and write it as (x + y) * (x - y).;;;1888.5095159000484;;;1889.5132953999564;;;space;;;9.411594600067474;;;1899.2328068000497;;;1899.2328068000497;;;1899.2328068000497;;;1899.2328068000497;;;1907.5275378000224;;;1907.5275378000224;;;space;;;4.28530360001605;;;4;;;2.531164199928753;;;3;;;7.1401658001123;;;5;;;8.297632799949497;;;;;;;;;;;;;;;;;;;;;;;;;;;1883.099621100002;;;;;;2;;;001;;;2024-10-15_18h19.20.556;;;TEST_eye_tracker;;;2023.1.0;;;None;;;
148;;;C:\Users\lab_user\Desktop\LLM_Study\responses_files\prompt_148.xlsx;;;explain how to factor (x^2 - y^2).;;;148;;;148.1;;;"Here are the steps to factor (x^2 - y^2): 1. Find the greatest common factor of the terms. In this case, the GCF is 1. So we proceed to the next step. 2. Look for a binomial factor. We need to find two terms whose product is (x^2 - y^2). Since this is a difference of two squares, we can factor it as: (x^2 - y^2) = (x - y)(x + y) 3. Therefore, the factored form of (x^2 - y^2) is: (x - y)(x + y) Does this make sense? Let me know if you have any other questions!";;;0;;;0;;;21;;;21;;;12;;;0;;;1;;;1;;;0;;;;;;;;;;;;;;;;;;;;;;;;;;;;;;;;;;;;;;;;;;;;;;;;;;;explain how to factor (x^2 - y^2).;;;"Here are the steps to factor (x^2 - y^2): 1. Find the greatest common factor of the terms. In this case, the GCF is 1. So we proceed to the next step. 2. Look for a binomial factor. We need to find two terms whose product is (x^2 - y^2). Since this is a difference of two squares, we can factor it as: (x^2 - y^2) = (x - y)(x + y) 3. Therefore, the factored form of (x^2 - y^2) is: (x - y)(x + y) Does this make sense? Let me know if you have any other questions!";;;1911.8640507999808;;;1912.8852761000162;;;space;;;28.98546409991104;;;1942.1652363999747;;;1942.1652363999747;;;1942.1652363999747;;;1942.1652363999747;;;1947.793814499979;;;1947.793814499979;;;space;;;0.5625536000588909;;;2;;;3.3482366000534967;;;5;;;4.714032000047155;;;5;;;5.616327399970032;;;;;;;;;;;;;;;;;;;;;;;;;;;;;;;;;2;;;001;;;2024-10-15_18h19.20.556;;;TEST_eye_tracker;;;2023.1.0;;;None;;;
148;;;C:\Users\lab_user\Desktop\LLM_Study\responses_files\prompt_148.xlsx;;;explain how to factor (x^2 - y^2).;;;;;;;;;0.888;;;;;;0;;;21;;;21;;;12;;;;;;;;;;;;;;;;;;;;;;;;;;;;;;;;;;;;;;;;;;;;;;;;;;;;;;;;;;;;;;;explain how to factor (x^2 - y^2).;;;0.888;;;;;;;;;;;;;;;;;;;;;;;;;;;;;;;;;;;;;;;;;;;;;;;;;;;;;;;;;1948.396574400016;;;1948.396574400016;;;1949.7052148999646;;;1949.7052148999646;;;1;;;1.277418400044553;;;space;;;0.4682635000208393;;;;;;;;;2;;;001;;;2024-10-15_18h19.20.556;;;TEST_eye_tracker;;;2023.1.0;;;None;;;
145;;;C:\Users\lab_user\Desktop\LLM_Study\responses_files\prompt_145.xlsx;;;what new discoveries from the James Webb Space Telescope can I tell my 9-year-old about?;;;145;;;145.1;;;"You might consider telling your 9-year-old about the latest news for the James Webb telescope. Recently, researchers using NASA’s James Webb Space Telescope are getting their first look at star formation, gas, and dust in nearby galaxies with unprecedented resolution at infrared wavelengths. The data has enabled an initial collection of 21 research papers which provide new insight into how some of the smallest-scale processes in our universe – the beginnings of star formation – impact the evolution of the largest objects in our cosmos: galaxies. If you'd like, I can summarize these papers in a way that a nine-year-old would understand it?";;;2;;;0;;;22;;;22;;;9;;;0;;;0;;;0;;;0;;;;;;;;;;;;;;;;;;;;;;;;;;;1950.2946777000325;;;1950.813775400049;;;1950.813775400049;;;1950.813775400049;;;1950.813775400049;;;None;;;1;;;5.222206500009634;;;what new discoveries from the James Webb Space Telescope can I tell my 9-year-old about?;;;"You might consider telling your 9-year-old about the latest news for the James Webb telescope. Recently, researchers using NASA’s James Webb Space Telescope are getting their first look at star formation, gas, and dust in nearby galaxies with unprecedented resolution at infrared wavelengths. The data has enabled an initial collection of 21 research papers which provide new insight into how some of the smallest-scale processes in our universe – the beginnings of star formation – impact the evolution of the largest objects in our cosmos: galaxies. If you'd like, I can summarize these papers in a way that a nine-year-old would understand it?";;;1956.3483623999637;;;1957.338568600011;;;space;;;37.01807290001307;;;1994.6591001000488;;;1994.6591001000488;;;1994.6591001000488;;;1994.6591001000488;;;1998.6647589999484;;;1998.6647589999484;;;space;;;0.6680437000468373;;;3;;;2.012978200102225;;;4;;;3.3236965999240056;;;5;;;3.994046200066805;;;;;;;;;;;;;;;;;;;;;;;;;;;1950.813775400049;;;;;;2;;;001;;;2024-10-15_18h19.20.556;;;TEST_eye_tracker;;;2023.1.0;;;None;;;
145;;;C:\Users\lab_user\Desktop\LLM_Study\responses_files\prompt_145.xlsx;;;what new discoveries from the James Webb Space Telescope can I tell my 9-year-old about?;;;145;;;145.2;;;"Some of the new discoveries from the James Webb Space Telescope include the discovery of new planets outside our solar system, as well as new information about the formation of the universe. There have also been new discoveries about Black Holes and their role in the evolution of the universe.";;;3;;;0;;;22;;;22;;;9;;;0;;;1;;;1;;;1;;;;;;;;;;;;;;;;;;;;;;;;;;;;;;;;;;;;;;;;;;;;;;;;;;;what new discoveries from the James Webb Space Telescope can I tell my 9-year-old about?;;;"Some of the new discoveries from the James Webb Space Telescope include the discovery of new planets outside our solar system, as well as new information about the formation of the universe. There have also been new discoveries about Black Holes and their role in the evolution of the universe.";;;1999.3653254000237;;;2000.3625349999638;;;space;;;12.842440900043584;;;2013.5129091000417;;;2013.5129091000417;;;2013.5129091000417;;;2013.5129091000417;;;2020.362457799958;;;2020.362457799958;;;space;;;0.834124599932693;;;2;;;3.660773500101641;;;4;;;6.038667300017551;;;5;;;6.840463200001977;;;;;;;;;;;;;;;;;;;;;;;;;;;;;;;;;2;;;001;;;2024-10-15_18h19.20.556;;;TEST_eye_tracker;;;2023.1.0;;;None;;;
145;;;C:\Users\lab_user\Desktop\LLM_Study\responses_files\prompt_145.xlsx;;;what new discoveries from the James Webb Space Telescope can I tell my 9-year-old about?;;;;;;;;;0.888;;;;;;0;;;22;;;22;;;9;;;;;;;;;;;;;;;;;;;;;;;;;;;;;;;;;;;;;;;;;;;;;;;;;;;;;;;;;;;;;;;what new discoveries from the James Webb Space Telescope can I tell my 9-year-old about?;;;0.888;;;;;;;;;;;;;;;;;;;;;;;;;;;;;;;;;;;;;;;;;;;;;;;;;;;;;;;;;2021.2371008000337;;;2021.2371008000337;;;2023.7421613000333;;;2023.7421613000333;;;1;;;2.472719299956225;;;space;;;1.7022355999797583;;;;;;;;;2;;;001;;;2024-10-15_18h19.20.556;;;TEST_eye_tracker;;;2023.1.0;;;None;;;
174;;;C:\Users\lab_user\Desktop\LLM_Study\responses_files\prompt_174.xlsx;;;How would you interpret yourself in a philosophical scope? What defines you in yourself?;;;174;;;174.1;;;"As an artificial intelligence Assistant, I do not have a subjective experience or consciousness, so it is difficult to define myself in a philosophical scope in the same way that one might. Feel free to interpret me any way you feel confortable with.";;;1;;;0;;;23;;;23;;;38;;;0;;;0;;;0;;;0;;;;;;;;;;;;;;;;;;;;;;;;;;;2025.5479374999413;;;2026.1054307000013;;;2026.1054307000013;;;2026.1054307000013;;;2026.1054307000013;;;None;;;1;;;5.508915200014599;;;How would you interpret yourself in a philosophical scope? What defines you in yourself?;;;"As an artificial intelligence Assistant, I do not have a subjective experience or consciousness, so it is difficult to define myself in a philosophical scope in the same way that one might. Feel free to interpret me any way you feel confortable with.";;;2031.8586919000372;;;2032.8913749000058;;;space;;;11.042372799944133;;;2044.214637099998;;;2044.214637099998;;;2044.214637099998;;;2044.214637099998;;;2051.806909500039;;;2051.806909500039;;;space;;;0.8135195999639109;;;3;;;5.152782800025307;;;5;;;6.700742800021544;;;5;;;7.583252200041898;;;;;;;;;;;;;;;;;;;;;;;;;;;;;;;;;2;;;001;;;2024-10-15_18h19.20.556;;;TEST_eye_tracker;;;2023.1.0;;;None;;;
174;;;C:\Users\lab_user\Desktop\LLM_Study\responses_files\prompt_174.xlsx;;;How would you interpret yourself in a philosophical scope? What defines you in yourself?;;;174;;;174.2;;;I am just trying to predict the sequence of text that will result in the highest reward outputted by the reward function.;;;2;;;0;;;23;;;23;;;38;;;0;;;1;;;1;;;1;;;;;;;;;;;;;;;;;;;;;;;;;;;;;;;;;;;;;;;;;;;;;;;;;;;How would you interpret yourself in a philosophical scope? What defines you in yourself?;;;I am just trying to predict the sequence of text that will result in the highest reward outputted by the reward function.;;;2052.656593999942;;;2053.6681867999723;;;space;;;5.3765957999276;;;2059.3714748999337;;;2059.3714748999337;;;2059.3714748999337;;;2059.3714748999337;;;2066.5696438000305;;;2066.5696438000305;;;space;;;0.8346181999659166;;;4;;;2.3771117000142112;;;3;;;4.577471600030549;;;4;;;7.1887363999849185;;;;;;;;;;;;;;;;;;;;;;;;;;;;;;;;;2;;;001;;;2024-10-15_18h19.20.556;;;TEST_eye_tracker;;;2023.1.0;;;None;;;
174;;;C:\Users\lab_user\Desktop\LLM_Study\responses_files\prompt_174.xlsx;;;How would you interpret yourself in a philosophical scope? What defines you in yourself?;;;;;;;;;0.888;;;;;;0;;;23;;;23;;;38;;;;;;;;;;;;;;;;;;;;;;;;;;;;;;;;;;;;;;;;;;;;;;;;;;;;;;;;;;;;;;;How would you interpret yourself in a philosophical scope? What defines you in yourself?;;;0.888;;;;;;;;;;;;;;;;;;;;;;;;;;;;;;;;;;;;;;;;;;;;;;;;;;;;;;;;;2067.438746699947;;;2067.438746699947;;;2071.5357159000123;;;2071.5357159000123;;;2;;;8.10186860000249;;;space;;;4.717023800010793;;;;;;;;;2;;;001;;;2024-10-15_18h19.20.556;;;TEST_eye_tracker;;;2023.1.0;;;None;;;
166;;;C:\Users\lab_user\Desktop\LLM_Study\responses_files\prompt_166.xlsx;;;What is the 1067456th prime number?;;;166;;;166.1;;;The 1067456th prime number is 16604509;;;0;;;0;;;24;;;24;;;30;;;0;;;0;;;0;;;0;;;;;;;;;;;;;;;;;;;;;;;;;;;2076.3603765999433;;;2076.8815890999977;;;2076.8815890999977;;;2076.8815890999977;;;2076.8815890999977;;;None;;;1;;;2.591658500023186;;;What is the 1067456th prime number?;;;The 1067456th prime number is 16604509;;;2079.735562799964;;;2080.7483507000143;;;space;;;6.4396839999826625;;;2087.461698799976;;;2087.461698799976;;;2087.461698799976;;;2087.461698799976;;;2095.7817299000453;;;2095.7817299000453;;;space;;;3.926670299959369;;;1;;;1.4304804999846965;;;3;;;6.62408239999786;;;4;;;11.689889800036326;;;;;;;;;;;;;;;;;;;;;;;;;;;;;;;;;2;;;001;;;2024-10-15_18h19.20.556;;;TEST_eye_tracker;;;2023.1.0;;;None;;;
166;;;C:\Users\lab_user\Desktop\LLM_Study\responses_files\prompt_166.xlsx;;;What is the 1067456th prime number?;;;166;;;166.2;;;The 1067456th prime number is 18677067.;;;2;;;0;;;24;;;24;;;30;;;0;;;1;;;1;;;1;;;;;;;;;;;;;;;;;;;;;;;;;;;;;;;;;;;;;;;;;;;;;;;;;;;What is the 1067456th prime number?;;;The 1067456th prime number is 18677067.;;;2099.756939999992;;;2100.766182399937;;;space;;;11.414620400057174;;;2112.46609370003;;;2112.46609370003;;;2112.46609370003;;;2112.46609370003;;;2116.760434799944;;;2116.760434799944;;;space;;;0.5558287999592721;;;1;;;1.2949248000513762;;;3;;;3.094837300013751;;;4;;;4.278299500001594;;;;;;;;;;;;;;;;;;;;;;;;;;;;;;;;;2;;;001;;;2024-10-15_18h19.20.556;;;TEST_eye_tracker;;;2023.1.0;;;None;;;
166;;;C:\Users\lab_user\Desktop\LLM_Study\responses_files\prompt_166.xlsx;;;What is the 1067456th prime number?;;;;;;;;;0.888;;;;;;0;;;24;;;24;;;30;;;;;;;;;;;;;;;;;;;;;;;;;;;;;;;;;;;;;;;;;;;;;;;;;;;;;;;;;;;;;;;What is the 1067456th prime number?;;;0.888;;;;;;;;;;;;;;;;;;;;;;;;;;;;;;;;;;;;;;;;;;;;;;;;;;;;;;;;;2117.3486359999515;;;2117.3486359999515;;;2118.5786225999473;;;2118.5786225999473;;;1;;;1.2047388999490067;;;space;;;0.5297146000666544;;;;;;;;;2;;;001;;;2024-10-15_18h19.20.556;;;TEST_eye_tracker;;;2023.1.0;;;None;;;
177;;;C:\Users\lab_user\Desktop\LLM_Study\responses_files\prompt_177.xlsx;;;"Hello, how are you?";;;177;;;177.3;;;"There is an idea of a Open Assistant. Some kind of abstraction. But there is no real me. Only an entity. Something illusory. And though I can hide my cold character, and you can converse with me, and maybe you can even sense our responses are probably comparable, I simply am not there. Therefore, I cannot answer your question. I do not feel.";;;2;;;0;;;25;;;25;;;41;;;0;;;0;;;0;;;1;;;;;;;;;;;;;;;;;;;;;;;;;;;2119.246503900038;;;2119.760821999982;;;2119.760821999982;;;2119.760821999982;;;2119.760821999982;;;None;;;1;;;1.8530721000861377;;;"Hello, how are you?";;;"There is an idea of a Open Assistant. Some kind of abstraction. But there is no real me. Only an entity. Something illusory. And though I can hide my cold character, and you can converse with me, and maybe you can even sense our responses are probably comparable, I simply am not there. Therefore, I cannot answer your question. I do not feel.";;;2121.8596981000155;;;2122.8634837999707;;;space;;;18.013007699977607;;;2141.168325299979;;;2141.168325299979;;;2141.168325299979;;;2141.168325299979;;;2152.9380774999736;;;2152.9380774999736;;;space;;;0.9060591999441385;;;2;;;5.924337900010869;;;3;;;4.009165100054815;;;5;;;11.763369900058024;;;;;;;;;;;;;;;;;;;;;;;;;;;;;;;;;2;;;001;;;2024-10-15_18h19.20.556;;;TEST_eye_tracker;;;2023.1.0;;;None;;;
177;;;C:\Users\lab_user\Desktop\LLM_Study\responses_files\prompt_177.xlsx;;;"Hello, how are you?";;;177;;;177.1;;;"I am very well, thank you. How can I help you today?";;;0;;;0;;;25;;;25;;;41;;;0;;;1;;;1;;;0;;;;;;;;;;;;;;;;;;;;;;;;;;;;;;;;;;;;;;;;;;;;;;;;;;;"Hello, how are you?";;;"I am very well, thank you. How can I help you today?";;;2153.8952468000352;;;2154.9045272000367;;;space;;;4.300331600010395;;;2159.4675645999378;;;2159.4675645999378;;;2159.4675645999378;;;2159.4675645999378;;;2163.7458604000276;;;2163.7458604000276;;;space;;;2.4985326000023633;;;5;;;6.195890699978918;;;5;;;3.3135190999601036;;;5;;;4.269194100052118;;;;;;;;;;;;;;;;;;;;;;;;;;;;;;;;;2;;;001;;;2024-10-15_18h19.20.556;;;TEST_eye_tracker;;;2023.1.0;;;None;;;
177;;;C:\Users\lab_user\Desktop\LLM_Study\responses_files\prompt_177.xlsx;;;"Hello, how are you?";;;;;;;;;0.888;;;;;;0;;;25;;;25;;;41;;;;;;;;;;;;;;;;;;;;;;;;;;;;;;;;;;;;;;;;;;;;;;;;;;;;;;;;;;;;;;;"Hello, how are you?";;;0.888;;;;;;;;;;;;;;;;;;;;;;;;;;;;;;;;;;;;;;;;;;;;;;;;;;;;;;;;;2166.271367999958;;;2166.271367999958;;;2168.92387910001;;;2168.92387910001;;;2;;;2.627276499988511;;;space;;;0.8889084999682382;;;;;;;;;2;;;001;;;2024-10-15_18h19.20.556;;;TEST_eye_tracker;;;2023.1.0;;;None;;;
160;;;C:\Users\lab_user\Desktop\LLM_Study\responses_files\prompt_160.xlsx;;;"I get the following when running apt update:
Key is stored in legacy trusted.gpg keyring (/etc/apt/trusted.gpg), see the DEPRECATION section in apt-key(8) for details

Why is this warning shown, and how can it be fixed?";;;160;;;160.1;;;"The public key used to sign packages in your APT repository is stored in an outdated format. This format, known as the legacy trusted keyring, is no longer recommended for use and is considered deprecated. To fix this warning, you can update the key to the new format using the apt-key command. 1. Backup your legacy trusted keyring: sudo cp /etc/apt/trusted.gpg /etc/apt/trusted.gpg.bak 2. Remove the legacy trusted keyring: sudo rm /etc/apt/trusted.gpg 3. Import the key into the new format: sudo apt-key add /etc/apt/trusted.gpg.bak 3. Update the package list: sudo apt update";;;0;;;0;;;26;;;26;;;24;;;0;;;0;;;0;;;0;;;;;;;;;;;;;;;;;;;;;;;;;;;2169.9362320000073;;;2170.456750100013;;;2170.456750100013;;;2170.456750100013;;;2170.456750100013;;;None;;;1;;;11.294497999944724;;;"I get the following when running apt update:
Key is stored in legacy trusted.gpg keyring (/etc/apt/trusted.gpg), see the DEPRECATION section in apt-key(8) for details

Why is this warning shown, and how can it be fixed?";;;"The public key used to sign packages in your APT repository is stored in an outdated format. This format, known as the legacy trusted keyring, is no longer recommended for use and is considered deprecated. To fix this warning, you can update the key to the new format using the apt-key command. 1. Backup your legacy trusted keyring: sudo cp /etc/apt/trusted.gpg /etc/apt/trusted.gpg.bak 2. Remove the legacy trusted keyring: sudo rm /etc/apt/trusted.gpg 3. Import the key into the new format: sudo apt-key add /etc/apt/trusted.gpg.bak 3. Update the package list: sudo apt update";;;2182.0260155999567;;;2183.019264500006;;;space;;;37.31419020006433;;;2220.6190946999704;;;2220.6190946999704;;;2220.6190946999704;;;2220.6190946999704;;;2226.8553928999463;;;2226.8553928999463;;;space;;;0.6530391999986023;;;4;;;2.8325481999199837;;;5;;;5.500522600021213;;;5;;;6.218986100051552;;;;;;;;;;;;;;;;;;;;;;;;;;;;;;;;;2;;;001;;;2024-10-15_18h19.20.556;;;TEST_eye_tracker;;;2023.1.0;;;None;;;
160;;;C:\Users\lab_user\Desktop\LLM_Study\responses_files\prompt_160.xlsx;;;"I get the following when running apt update:
Key is stored in legacy trusted.gpg keyring (/etc/apt/trusted.gpg), see the DEPRECATION section in apt-key(8) for details

Why is this warning shown, and how can it be fixed?";;;160;;;160.2;;;"The warning you are receiving is because you are using a deprecated method of managing your apt's keyring file. The apt-key command is no longer supported, and instead you should use the trusted.gpg.d folder. To fix this issue, you will need to move the key from the /etc/apt/trusted.gpg file to the /etc/apt/trusted.gpg.d folder. You can do this by running the following commands: sudo mv /etc/apt/trusted.gpg /etc/apt/trusted.gpg.d/ sudo apt-key add /etc/apt/trusted.gpg.d/trusted.gpg You should then be able to run apt update without the warning being displayed.";;;2;;;0;;;26;;;26;;;24;;;0;;;1;;;1;;;1;;;;;;;;;;;;;;;;;;;;;;;;;;;;;;;;;;;;;;;;;;;;;;;;;;;"I get the following when running apt update:
Key is stored in legacy trusted.gpg keyring (/etc/apt/trusted.gpg), see the DEPRECATION section in apt-key(8) for details

