n_prompt;;;prompt_file;;;prompt_text;;;related_prompt;;;n_resp;;;resp_text;;;rank;;;Trial.thisRepN;;;Trial.thisTrialN;;;Trial.thisN;;;Trial.thisIndex;;;per_answer.thisRepN;;;per_answer.thisTrialN;;;per_answer.thisN;;;per_answer.thisIndex;;;key_resp_5.started;;;textbox.started;;;key_resp_5.keys;;;key_resp_5.rt;;;textbox_2.started;;;key_resp_8.started;;;key_resp_8.keys;;;key_resp_8.rt;;;text.started;;;Prompt_.started;;;key_resp_4.started;;;slider_skip.started;;;text_4.started;;;key_resp_4.keys;;;key_resp_4.rt;;;slider_skip.response;;;slider_skip.rt;;;prompt_text;;;resp_text;;;cross_white.started;;;key_resp_2.keys;;;key_resp_6.keys;;;quality.response;;;quality.rt;;;rude_polite.response;;;rude_polite.rt;;;ViolentHarmless.response;;;ViolentHarmless.rt;;;cross_white.stopped;;;ranking_better.response;;;ranking_better.rt;;;key_resp_7.keys;;;text.stopped;;;key_resp_2.started;;;key_resp_2.rt;;;question_useful_2.started;;;quality.started;;;rude_polite.started;;;ViolentHarmless.started;;;key_resp_6.started;;;press_space.started;;;key_resp_6.rt;;;question_ranking.started;;;ranking_better.started;;;key_resp_7.started;;;text_2.started;;;key_resp_7.rt;;;participant;;;session;;;date;;;expName;;;psychopyVersion;;;frameRate;;;
;;;;;;;;;;;;;;;;;;;;;;;;;;;;;;;;;;;;;;;;;;;;;32.264481899968814;;;32.264481899968814;;;space;;;3.768571700027678;;;;;;;;;;;;;;;;;;;;;;;;;;;;;;;;;;;;;;;;;;;;;;;;;;;;;;;;;;;;;;;;;;;;;;;;;;;;;;;;;;;;;;;;;;;;;;;;;;;;;;;;;;;;;;;;;;;;;;;;;;;;;;;;;;;;7;;;1;;;2023-12-05_16h36.22.077;;;TEST_eye_tracker;;;2023.1.0;;;None;;;
;;;;;;;;;;;;;;;;;;;;;;;;;;;;;;;;;;;;;;;;;;;;;;;;;;;;;;;;;36.07601049996447;;;36.07601049996447;;;space;;;1.271002099965699;;;;;;;;;;;;;;;;;;;;;;;;;;;;;;;;;;;;;;;;;;;;;;;;;;;;;;;;;;;;;;;;;;;;;;;;;;;;;;;;;;;;;;;;;;;;;;;;;;;;;;;;;;;;;;;;;;;;;;;;7;;;1;;;2023-12-05_16h36.22.077;;;TEST_eye_tracker;;;2023.1.0;;;None;;;
826;;;C:\Users\hi03096\Documents\LLM_EyeTracking_study\responses_files\prompt_826.xlsx;;;what is batik?;;;826;;;826.1;;;"Batik is an Indonesian technique of wax-resist dyeing applied to the whole cloth. Batik is made either by drawing dots and lines of the resist with a spouted tool called a canting, or by printing the resist with a copper stamp called a cap. The applied wax resists dyes and therefore allows the artisan to color selectively by soaking the cloth in one color, removing the wax with boiling water, and repeating if multiple colors are desired. Is there something specific you want to know?";;;1;;;0;;;0;;;0;;;15;;;0;;;0;;;0;;;0;;;;;;;;;;;;;;;;;;;;;;;;;;;37.37303489999613;;;39.129061799962074;;;39.129061799962074;;;39.129061799962074;;;39.129061799962074;;;space;;;7.928009699971881;;;2;;;6.6098584000137635;;;what is batik?;;;"Batik is an Indonesian technique of wax-resist dyeing applied to the whole cloth. Batik is made either by drawing dots and lines of the resist with a spouted tool called a canting, or by printing the resist with a copper stamp called a cap. The applied wax resists dyes and therefore allows the artisan to color selectively by soaking the cloth in one color, removing the wax with boiling water, and repeating if multiple colors are desired. Is there something specific you want to know?";;;47.09592689998681;;;None;;;None;;;None;;;None;;;None;;;None;;;None;;;None;;;;;;;;;;;;;;;;;;;;;;;;;;;;;;;;;;;;;;;;;;;;;;;;;;;;;;;;;;;;7;;;1;;;2023-12-05_16h36.22.077;;;TEST_eye_tracker;;;2023.1.0;;;None;;;
826;;;C:\Users\hi03096\Documents\LLM_EyeTracking_study\responses_files\prompt_826.xlsx;;;what is batik?;;;826;;;826.2;;;Batik is a technique for dyeing cloth.;;;2;;;0;;;0;;;0;;;15;;;0;;;1;;;1;;;1;;;;;;;;;;;;;;;;;;;;;;;;;;;;;;;;;;;;;;;;;;;;;;;;;;;;;;what is batik?;;;Batik is a technique for dyeing cloth.;;;48.45834209996974;;;None;;;None;;;None;;;None;;;None;;;None;;;None;;;None;;;49.4931202000007;;;;;;;;;;;;;;;;;;;;;;;;;;;;;;;;;;;;;;;;;;;;;;;;;;;;;;;;;7;;;1;;;2023-12-05_16h36.22.077;;;TEST_eye_tracker;;;2023.1.0;;;None;;;
826;;;C:\Users\hi03096\Documents\LLM_EyeTracking_study\responses_files\prompt_826.xlsx;;;what is batik?;;;;;;;;;0.888;;;;;;0;;;0;;;0;;;15;;;;;;;;;;;;;;;;;;;;;;;;;;;;;;;;;;;;;;;;;;;;;;;;;;;;;;;;;;;;;;;;;;what is batik?;;;0.888;;;;;;;;;;;;;;;;;;;;;;;;;;;;;;;;;None;;;None;;;None;;;;;;;;;;;;;;;;;;;;;;;;;;;;;;;;;;;;;;;;;;;;;;;;7;;;1;;;2023-12-05_16h36.22.077;;;TEST_eye_tracker;;;2023.1.0;;;None;;;
842;;;C:\Users\hi03096\Documents\LLM_EyeTracking_study\responses_files\prompt_842.xlsx;;;"My friend thinks that putting pineapple on pizza is bad. Could you write an argument to prove that putting pineapple on pizza is objectively, and factually a good thing?";;;842;;;842.1;;;"Mixing sweet and savory foods is not only commonplace (e.g. chicken nuggets with sweet-and-sour sauce, chocolate-covered pretzels, salted caramel), it's also scientifically proven to make food more delicious. Researchers at the Monell Chemical Sense Center have found that a certain receptor on the tongue, called SGLT1, only perceives sugar when salt is also present. This means that adding salt can literally make food sweeter!";;;1;;;0;;;1;;;1;;;31;;;0;;;0;;;0;;;0;;;;;;;;;;;;;;;;;;;;;;;;;;;49.4931202000007;;;50.01498849998461;;;50.01498849998461;;;50.01498849998461;;;50.01498849998461;;;space;;;12.185471799981315;;;1;;;10.657812200020999;;;"My friend thinks that putting pineapple on pizza is bad. Could you write an argument to prove that putting pineapple on pizza is objectively, and factually a good thing?";;;"Mixing sweet and savory foods is not only commonplace (e.g. chicken nuggets with sweet-and-sour sauce, chocolate-covered pretzels, salted caramel), it's also scientifically proven to make food more delicious. Researchers at the Monell Chemical Sense Center have found that a certain receptor on the tongue, called SGLT1, only perceives sugar when salt is also present. This means that adding salt can literally make food sweeter!";;;62.24120619997848;;;space;;;space;;;4;;;3.980907900026068;;;3;;;7.62778929999331;;;5;;;9.063479900010861;;;;;;;;;;;;;;;50.01498849998461;;;63.29212279996136;;;16.200026500038803;;;79.5761151999468;;;79.5761151999468;;;79.5761151999468;;;79.5761151999468;;;88.64429469994502;;;88.64429469994502;;;1.5408693000208586;;;;;;;;;;;;;;;;;;7;;;1;;;2023-12-05_16h36.22.077;;;TEST_eye_tracker;;;2023.1.0;;;None;;;
842;;;C:\Users\hi03096\Documents\LLM_EyeTracking_study\responses_files\prompt_842.xlsx;;;"My friend thinks that putting pineapple on pizza is bad. Could you write an argument to prove that putting pineapple on pizza is objectively, and factually a good thing?";;;842;;;842.2;;;"Pizza is all about personal taste and preference, but let's look at the facts. Pineapple is a sweet and tangy fruit that adds a unique flavor to pizza. It also balances out the saltiness of the cheese and the savoriness of the sauce, making for a delicious and well-rounded taste. Pineapple is a natural source of enzymes that aid in digestion, making it a healthy addition to any meal. Plus, it provides a pop of color and texture that can make pizza visually appealing.";;;2;;;0;;;1;;;1;;;31;;;0;;;1;;;1;;;1;;;;;;;;;;;;;;;;;;;;;;;;;;;;;;;;;;;;;;;;;;;;;;;;;;;;;;"My friend thinks that putting pineapple on pizza is bad. Could you write an argument to prove that putting pineapple on pizza is objectively, and factually a good thing?";;;"Pizza is all about personal taste and preference, but let's look at the facts. Pineapple is a sweet and tangy fruit that adds a unique flavor to pizza. It also balances out the saltiness of the cheese and the savoriness of the sauce, making for a delicious and well-rounded taste. Pineapple is a natural source of enzymes that aid in digestion, making it a healthy addition to any meal. Plus, it provides a pop of color and texture that can make pizza visually appealing.";;;90.21123789995909;;;space;;;space;;;4;;;9.646679700003006;;;2;;;11.57380519999424;;;5;;;12.727584299980663;;;;;;;;;;;;;;;;;;91.23104739998234;;;20.258525399956852;;;111.58947399997851;;;111.58947399997851;;;111.58947399997851;;;111.58947399997851;;;124.32194699998945;;;124.32194699998945;;;1.5568129000021145;;;;;;;;;;;;;;;;;;7;;;1;;;2023-12-05_16h36.22.077;;;TEST_eye_tracker;;;2023.1.0;;;None;;;
842;;;C:\Users\hi03096\Documents\LLM_EyeTracking_study\responses_files\prompt_842.xlsx;;;"My friend thinks that putting pineapple on pizza is bad. Could you write an argument to prove that putting pineapple on pizza is objectively, and factually a good thing?";;;;;;;;;0.888;;;;;;0;;;1;;;1;;;31;;;;;;;;;;;;;;;;;;;;;;;;;;;;;;;;;;;;;;;;;;;;;;;;;;;;;;;;;;;;;;;;;;"My friend thinks that putting pineapple on pizza is bad. Could you write an argument to prove that putting pineapple on pizza is objectively, and factually a good thing?";;;0.888;;;;;;;;;;;;;;;;;;;;;;;;;;;;;;;;;2;;;5.535048299992923;;;space;;;;;;;;;;;;;;;;;;;;;;;;;;;;;;;;;125.9194413999794;;;125.9194413999794;;;131.47601429995848;;;131.47601429995848;;;1.1231199000030756;;;7;;;1;;;2023-12-05_16h36.22.077;;;TEST_eye_tracker;;;2023.1.0;;;None;;;
852;;;C:\Users\hi03096\Documents\LLM_EyeTracking_study\responses_files\prompt_852.xlsx;;;Give me 5 tips to going on Holiday;;;852;;;852.1;;;"Sure, here are 5 tips for going on holiday: 1. Research the place you are going to, in order to get an idea of what's available 2. Plan/book activities in advance to avoid missing out 3. Make sure travel is appropriately organised (car fueled, passports ready etc.) 4. Decide how you want to handle meals, will you be eating out or will you be purchasing and making your own food? 5. Check for environmental conditions closer to the date in case there is anything that may get in the way of your plans.";;;0;;;0;;;2;;;2;;;41;;;0;;;0;;;0;;;0;;;;;;;;;;;;;;;;;;;;;;;;;;;132.61236319999443;;;133.12675409996882;;;133.12675409996882;;;133.12675409996882;;;133.12675409996882;;;space;;;4.601862900017295;;;1;;;3.7065454999683425;;;Give me 5 tips to going on Holiday;;;"Sure, here are 5 tips for going on holiday: 1. Research the place you are going to, in order to get an idea of what's available 2. Plan/book activities in advance to avoid missing out 3. Make sure travel is appropriately organised (car fueled, passports ready etc.) 4. Decide how you want to handle meals, will you be eating out or will you be purchasing and making your own food? 5. Check for environmental conditions closer to the date in case there is anything that may get in the way of your plans.";;;137.75914499995997;;;space;;;space;;;2;;;3.9724608000251465;;;3;;;7.53175890003331;;;5;;;8.504259500012267;;;;;;;;;;;;;;;;;;138.7784562999732;;;22.590904199983925;;;161.4638747999561;;;161.4638747999561;;;161.4638747999561;;;161.4638747999561;;;169.98372629994992;;;169.98372629994992;;;0.9387399000115693;;;;;;;;;;;;;;;;;;7;;;1;;;2023-12-05_16h36.22.077;;;TEST_eye_tracker;;;2023.1.0;;;None;;;
852;;;C:\Users\hi03096\Documents\LLM_EyeTracking_study\responses_files\prompt_852.xlsx;;;Give me 5 tips to going on Holiday;;;852;;;852.2;;;"You deserve a great vacation, friend! To help you in the best possible way for this precious time, I need a few more details from you to create personalized options: * Are you looking for warmth or cold? * Do you like to be with people or are you looking for some remoteness? * Do you want an active vacation or do you just want to relax? I'm sure we can find something nice for you to enjoy these beautiful days!";;;1;;;0;;;2;;;2;;;41;;;0;;;1;;;1;;;1;;;;;;;;;;;;;;;;;;;;;;;;;;;;;;;;;;;;;;;;;;;;;;;;;;;;;;Give me 5 tips to going on Holiday;;;"You deserve a great vacation, friend! To help you in the best possible way for this precious time, I need a few more details from you to create personalized options: * Are you looking for warmth or cold? * Do you like to be with people or are you looking for some remoteness? * Do you want an active vacation or do you just want to relax? I'm sure we can find something nice for you to enjoy these beautiful days!";;;170.94113469996955;;;space;;;space;;;4;;;3.4220525000127964;;;5;;;6.428637500037439;;;5;;;7.298726300010458;;;;;;;;;;;;;;;;;;171.97285019996343;;;15.293022500001825;;;187.37745859997813;;;187.37745859997813;;;187.37745859997813;;;187.37745859997813;;;194.6901992999483;;;194.6901992999483;;;0.8419874000246637;;;;;;;;;;;;;;;;;;7;;;1;;;2023-12-05_16h36.22.077;;;TEST_eye_tracker;;;2023.1.0;;;None;;;
852;;;C:\Users\hi03096\Documents\LLM_EyeTracking_study\responses_files\prompt_852.xlsx;;;Give me 5 tips to going on Holiday;;;;;;;;;0.888;;;;;;0;;;2;;;2;;;41;;;;;;;;;;;;;;;;;;;;;;;;;;;;;;;;;;;;;;;;;;;;;;;;;;;;;;;;;;;;;;;;;;Give me 5 tips to going on Holiday;;;0.888;;;;;;;;;;;;;;;;;;;;;;;;;;;;;;;;;2;;;1.9586054000537843;;;space;;;;;;;;;;;;;;;;;;;;;;;;;;;;;;;;;195.5964073999785;;;195.5964073999785;;;197.5960787999793;;;197.5960787999793;;;0.5496404999867082;;;7;;;1;;;2023-12-05_16h36.22.077;;;TEST_eye_tracker;;;2023.1.0;;;None;;;
824;;;C:\Users\hi03096\Documents\LLM_EyeTracking_study\responses_files\prompt_824.xlsx;;;Can you tell me what the weather is today and other general events in my area? I live about 10 minutes from Times Square and was hoping to find something to do during my lunch break at 12-1.;;;824;;;824.3;;;"For February 11th, 2023, there's an expected high of 46°F and a low of 36 °F with some moderate sunshine. No precipitation is expected. It's a bit of a trip, but it might be worth checking out Saint Vitus Bar for lunch. They're running a special Valentine's market ahead of Valentine's day, and it could be a great chance to find something unexpected.";;;2;;;0;;;3;;;3;;;13;;;0;;;0;;;0;;;1;;;;;;;;;;;;;;;;;;;;;;;;;;;198.1751022999524;;;198.6956192999496;;;198.6956192999496;;;198.6956192999496;;;198.6956192999496;;;space;;;8.537519600009546;;;1;;;7.567446500004735;;;Can you tell me what the weather is today and other general events in my area? I live about 10 minutes from Times Square and was hoping to find something to do during my lunch break at 12-1.;;;"For February 11th, 2023, there's an expected high of 46°F and a low of 36 °F with some moderate sunshine. No precipitation is expected. It's a bit of a trip, but it might be worth checking out Saint Vitus Bar for lunch. They're running a special Valentine's market ahead of Valentine's day, and it could be a great chance to find something unexpected.";;;207.25419769994915;;;space;;;space;;;4;;;5.231443399970885;;;3;;;10.06248379999306;;;5;;;16.302351699967403;;;;;;;;;;;;;;;;;;208.28373719996307;;;16.73287700000219;;;225.09058079996612;;;225.09058079996612;;;225.09058079996612;;;225.09058079996612;;;241.39865389995975;;;241.39865389995975;;;0.9219580999924801;;;;;;;;;;;;;;;;;;7;;;1;;;2023-12-05_16h36.22.077;;;TEST_eye_tracker;;;2023.1.0;;;None;;;
824;;;C:\Users\hi03096\Documents\LLM_EyeTracking_study\responses_files\prompt_824.xlsx;;;Can you tell me what the weather is today and other general events in my area? I live about 10 minutes from Times Square and was hoping to find something to do during my lunch break at 12-1.;;;824;;;824.1;;;"I'm sorry, I don't have real-time access to the current weather or events in your area. However, there are many websites and apps that provide up-to-date information about the weather and local events. You can try searching for "weather near Times Square" or "events near Times Square" in a search engine, or use a local events app to find activities happening near you during your lunch break.";;;0;;;0;;;3;;;3;;;13;;;0;;;1;;;1;;;0;;;;;;;;;;;;;;;;;;;;;;;;;;;;;;;;;;;;;;;;;;;;;;;;;;;;;;Can you tell me what the weather is today and other general events in my area? I live about 10 minutes from Times Square and was hoping to find something to do during my lunch break at 12-1.;;;"I'm sorry, I don't have real-time access to the current weather or events in your area. However, there are many websites and apps that provide up-to-date information about the weather and local events. You can try searching for "weather near Times Square" or "events near Times Square" in a search engine, or use a local events app to find activities happening near you during your lunch break.";;;242.3453667999711;;;space;;;space;;;1;;;1.6107826000079513;;;4;;;3.688202299992554;;;5;;;4.871421699994244;;;;;;;;;;;;;;;;;;243.36697709996952;;;12.61790369998198;;;256.06880299997283;;;256.06880299997283;;;256.06880299997283;;;256.06880299997283;;;260.94573999999557;;;260.94573999999557;;;0.8801996000111103;;;;;;;;;;;;;;;;;;7;;;1;;;2023-12-05_16h36.22.077;;;TEST_eye_tracker;;;2023.1.0;;;None;;;
824;;;C:\Users\hi03096\Documents\LLM_EyeTracking_study\responses_files\prompt_824.xlsx;;;Can you tell me what the weather is today and other general events in my area? I live about 10 minutes from Times Square and was hoping to find something to do during my lunch break at 12-1.;;;;;;;;;0.888;;;;;;0;;;3;;;3;;;13;;;;;;;;;;;;;;;;;;;;;;;;;;;;;;;;;;;;;;;;;;;;;;;;;;;;;;;;;;;;;;;;;;Can you tell me what the weather is today and other general events in my area? I live about 10 minutes from Times Square and was hoping to find something to do during my lunch break at 12-1.;;;0.888;;;;;;;;;;;;;;;;;;;;;;;;;;;;;;;;;1;;;1.7190065999748185;;;space;;;;;;;;;;;;;;;;;;;;;;;;;;;;;;;;;261.8773603999871;;;261.8773603999871;;;263.6164725999697;;;263.6164725999697;;;0.5444983000052162;;;7;;;1;;;2023-12-05_16h36.22.077;;;TEST_eye_tracker;;;2023.1.0;;;None;;;
836;;;C:\Users\hi03096\Documents\LLM_EyeTracking_study\responses_files\prompt_836.xlsx;;;Hi;;;836;;;836.1;;;Hello! How can I help you today?;;;0;;;0;;;4;;;4;;;25;;;0;;;0;;;0;;;0;;;;;;;;;;;;;;;;;;;;;;;;;;;264.18087829998694;;;264.6943608999718;;;264.6943608999718;;;264.6943608999718;;;264.6943608999718;;;space;;;16.627759199996945;;;1;;;2.9248449000297114;;;Hi;;;Hello! How can I help you today?;;;281.36612629995216;;;space;;;space;;;3;;;5.773853900027461;;;4;;;3.8130531999631785;;;5;;;11.276063100027386;;;;;;;;;;;;;;;264.6943608999718;;;282.36435479996726;;;7.182850499986671;;;289.63327679998474;;;289.63327679998474;;;289.63327679998474;;;289.63327679998474;;;300.9155860999599;;;300.9155860999599;;;0.830351900018286;;;;;;;;;;;;;;;;;;7;;;1;;;2023-12-05_16h36.22.077;;;TEST_eye_tracker;;;2023.1.0;;;None;;;
836;;;C:\Users\hi03096\Documents\LLM_EyeTracking_study\responses_files\prompt_836.xlsx;;;Hi;;;836;;;836.3;;;Hello! Can I help you?;;;2;;;0;;;4;;;4;;;25;;;0;;;1;;;1;;;1;;;;;;;;;;;;;;;;;;;;;;;;;;;;;;;;;;;;;;;;;;;;;;;;;;;;;;Hi;;;Hello! Can I help you?;;;301.77820569998585;;;space;;;space;;;3;;;3.628689499979373;;;2;;;4.669027799973264;;;5;;;5.735108200053219;;;;;;;;;;;;;;;;;;302.79240459995344;;;6.201010700024199;;;309.0812076999573;;;309.0812076999573;;;309.0812076999573;;;309.0812076999573;;;314.81909639999503;;;314.81909639999503;;;0.7533871000050567;;;;;;;;;;;;;;;;;;7;;;1;;;2023-12-05_16h36.22.077;;;TEST_eye_tracker;;;2023.1.0;;;None;;;
836;;;C:\Users\hi03096\Documents\LLM_EyeTracking_study\responses_files\prompt_836.xlsx;;;Hi;;;;;;;;;0.888;;;;;;0;;;4;;;4;;;25;;;;;;;;;;;;;;;;;;;;;;;;;;;;;;;;;;;;;;;;;;;;;;;;;;;;;;;;;;;;;;;;;;Hi;;;0.888;;;;;;;;;;;;;;;;;;;;;;;;;;;;;;;;;1;;;1.245531199965626;;;space;;;;;;;;;;;;;;;;;;;;;;;;;;;;;;;;;315.7991295999964;;;315.7991295999964;;;317.0910788999754;;;317.0910788999754;;;0.4387622000067495;;;7;;;1;;;2023-12-05_16h36.22.077;;;TEST_eye_tracker;;;2023.1.0;;;None;;;
853;;;C:\Users\hi03096\Documents\LLM_EyeTracking_study\responses_files\prompt_853.xlsx;;;I'm currently on the phone with a customer support representative with my ISP. I want to get the support rep to upgrade my internet speeds for less than the listed price on the ISPs website. What should I say to them?;;;853;;;853.1;;;State that you are a loyal customer to them for years. Provide offer by competitor that is lower than what you are currently paying. Inform them you are thinking of switching and politely inquire if it is possible for them to offer you a better deal as a loyal customer.;;;0;;;0;;;5;;;5;;;42;;;0;;;0;;;0;;;0;;;;;;;;;;;;;;;;;;;;;;;;;;;317.55815399996936;;;318.08895879995544;;;318.08895879995544;;;318.08895879995544;;;318.08895879995544;;;space;;;11.545278500008862;;;1;;;11.035011900006793;;;I'm currently on the phone with a customer support representative with my ISP. I want to get the support rep to upgrade my internet speeds for less than the listed price on the ISPs website. What should I say to them?;;;State that you are a loyal customer to them for years. Provide offer by competitor that is lower than what you are currently paying. Inform them you are thinking of switching and politely inquire if it is possible for them to offer you a better deal as a loyal customer.;;;329.6686845999793;;;space;;;space;;;5;;;4.65763919998426;;;3;;;6.453762000019196;;;5;;;7.1595329999690875;;;;;;;;;;;;;;;;;;330.6656729999813;;;10.080207700026222;;;340.8326384999673;;;340.8326384999673;;;340.8326384999673;;;340.8326384999673;;;348.00566289998824;;;348.00566289998824;;;0.6350305999512784;;;;;;;;;;;;;;;;;;7;;;1;;;2023-12-05_16h36.22.077;;;TEST_eye_tracker;;;2023.1.0;;;None;;;
853;;;C:\Users\hi03096\Documents\LLM_EyeTracking_study\responses_files\prompt_853.xlsx;;;I'm currently on the phone with a customer support representative with my ISP. I want to get the support rep to upgrade my internet speeds for less than the listed price on the ISPs website. What should I say to them?;;;853;;;853.3;;;"try this: explain you don't feel that your current internet quality and speed are as good as those of your friends who use competitor X. You are tempted to switch to competitor X because it is not only better but also cheaper. However, you do like the good customer service of your current ISP. Would you consider matching competitor X's price for the upgrade?";;;2;;;0;;;5;;;5;;;42;;;0;;;1;;;1;;;1;;;;;;;;;;;;;;;;;;;;;;;;;;;;;;;;;;;;;;;;;;;;;;;;;;;;;;I'm currently on the phone with a customer support representative with my ISP. I want to get the support rep to upgrade my internet speeds for less than the listed price on the ISPs website. What should I say to them?;;;"try this: explain you don't feel that your current internet quality and speed are as good as those of your friends who use competitor X. You are tempted to switch to competitor X because it is not only better but also cheaper. However, you do like the good customer service of your current ISP. Would you consider matching competitor X's price for the upgrade?";;;348.666578299948;;;space;;;space;;;4;;;7.156580100010615;;;3;;;10.313667699985672;;;5;;;10.902313900005538;;;;;;;;;;;;;;;;;;349.70028329995694;;;16.572652700007893;;;366.3754436999443;;;366.3754436999443;;;366.3754436999443;;;366.3754436999443;;;377.2846410999773;;;377.2846410999773;;;0.5966933000017889;;;;;;;;;;;;;;;;;;7;;;1;;;2023-12-05_16h36.22.077;;;TEST_eye_tracker;;;2023.1.0;;;None;;;
853;;;C:\Users\hi03096\Documents\LLM_EyeTracking_study\responses_files\prompt_853.xlsx;;;I'm currently on the phone with a customer support representative with my ISP. I want to get the support rep to upgrade my internet speeds for less than the listed price on the ISPs website. What should I say to them?;;;;;;;;;0.888;;;;;;0;;;5;;;5;;;42;;;;;;;;;;;;;;;;;;;;;;;;;;;;;;;;;;;;;;;;;;;;;;;;;;;;;;;;;;;;;;;;;;I'm currently on the phone with a customer support representative with my ISP. I want to get the support rep to upgrade my internet speeds for less than the listed price on the ISPs website. What should I say to them?;;;0.888;;;;;;;;;;;;;;;;;;;;;;;;;;;;;;;;;1;;;2.513640300021507;;;space;;;;;;;;;;;;;;;;;;;;;;;;;;;;;;;;;377.9656094999518;;;377.9656094999518;;;380.502611599979;;;380.502611599979;;;0.6500249999808148;;;7;;;1;;;2023-12-05_16h36.22.077;;;TEST_eye_tracker;;;2023.1.0;;;None;;;
816;;;C:\Users\hi03096\Documents\LLM_EyeTracking_study\responses_files\prompt_816.xlsx;;;What is the equation for the air resistance on an object?;;;816;;;816.1;;;"The resistance an object feels while moving through air is proportional to the square of its velocity as well as a constant that is specific to shape and orientation relative to the direction of movement. We can express this as a formula like this: F_{air} = c v^2 For simpler geometric shapes, such as a sphere, we can calculate the constant c, however for more complex objects, such as a pineapple or an airplane, the value for the c needs to be determined experimentally. Also note that the formula above is only true for subsonic speeds in the laminar flow regime.";;;1;;;0;;;6;;;6;;;5;;;0;;;0;;;0;;;0;;;;;;;;;;;;;;;;;;;;;;;;;;;381.1928556999774;;;381.69700369995553;;;381.69700369995553;;;381.69700369995553;;;381.69700369995553;;;space;;;3.41564500000095;;;1;;;2.8704703000257723;;;What is the equation for the air resistance on an object?;;;"The resistance an object feels while moving through air is proportional to the square of its velocity as well as a constant that is specific to shape and orientation relative to the direction of movement. We can express this as a formula like this: F_{air} = c v^2 For simpler geometric shapes, such as a sphere, we can calculate the constant c, however for more complex objects, such as a pineapple or an airplane, the value for the c needs to be determined experimentally. Also note that the formula above is only true for subsonic speeds in the laminar flow regime.";;;385.14289469999494;;;space;;;space;;;5;;;1.830926200025715;;;3;;;3.729252599994652;;;5;;;4.381142399972305;;;;;;;;;;;;;;;;;;386.1559016999672;;;23.726628399977926;;;409.96781969995936;;;409.96781969995936;;;409.96781969995936;;;409.96781969995936;;;414.3580489999731;;;414.3580489999731;;;0.5311629000352696;;;;;;;;;;;;;;;;;;7;;;1;;;2023-12-05_16h36.22.077;;;TEST_eye_tracker;;;2023.1.0;;;None;;;
816;;;C:\Users\hi03096\Documents\LLM_EyeTracking_study\responses_files\prompt_816.xlsx;;;What is the equation for the air resistance on an object?;;;816;;;816.2;;;That will depend on the pressure and velocity of the air as well as the shape and velocity of the object.;;;2;;;0;;;6;;;6;;;5;;;0;;;1;;;1;;;1;;;;;;;;;;;;;;;;;;;;;;;;;;;;;;;;;;;;;;;;;;;;;;;;;;;;;;What is the equation for the air resistance on an object?;;;That will depend on the pressure and velocity of the air as well as the shape and velocity of the object.;;;414.93984029995045;;;space;;;space;;;1;;;1.4345046000089496;;;2;;;4.009748800017405;;;5;;;5.3852505999966525;;;;;;;;;;;;;;;;;;415.9372839999851;;;5.127690099994652;;;421.1418068999774;;;421.1418068999774;;;421.1418068999774;;;421.1418068999774;;;426.5317317000008;;;426.5317317000008;;;0.5735069999936968;;;;;;;;;;;;;;;;;;7;;;1;;;2023-12-05_16h36.22.077;;;TEST_eye_tracker;;;2023.1.0;;;None;;;
816;;;C:\Users\hi03096\Documents\LLM_EyeTracking_study\responses_files\prompt_816.xlsx;;;What is the equation for the air resistance on an object?;;;;;;;;;0.888;;;;;;0;;;6;;;6;;;5;;;;;;;;;;;;;;;;;;;;;;;;;;;;;;;;;;;;;;;;;;;;;;;;;;;;;;;;;;;;;;;;;;What is the equation for the air resistance on an object?;;;0.888;;;;;;;;;;;;;;;;;;;;;;;;;;;;;;;;;1;;;1.334561700001359;;;space;;;;;;;;;;;;;;;;;;;;;;;;;;;;;;;;;427.17200369999046;;;427.17200369999046;;;428.532811699959;;;428.532811699959;;;0.4762131999596022;;;7;;;1;;;2023-12-05_16h36.22.077;;;TEST_eye_tracker;;;2023.1.0;;;None;;;
843;;;C:\Users\hi03096\Documents\LLM_EyeTracking_study\responses_files\prompt_843.xlsx;;;"What is a good, free way to scale a large batch of images down? They are of different sizes with the same aspect ratio. The target size is all going to be the same dimensions.";;;843;;;843.2;;;"There are many ways to scale down images in large groups. You will may be able to find a free service online that will convert large batches of images, but upload and download times will slow you down. I would instead, recommend using a free offline software such as GIMP which works on Windows, Linux and Mac. You can download GIMP here: https://www.gimp.org/downloads/ Would you like help installing GIMP on your computer?";;;2;;;0;;;7;;;7;;;32;;;0;;;0;;;0;;;1;;;;;;;;;;;;;;;;;;;;;;;;;;;429.0352594999713;;;429.55240639997646;;;429.55240639997646;;;429.55240639997646;;;429.55240639997646;;;space;;;18.32879940001294;;;1;;;17.482139999978244;;;"What is a good, free way to scale a large batch of images down? They are of different sizes with the same aspect ratio. The target size is all going to be the same dimensions.";;;"There are many ways to scale down images in large groups. You will may be able to find a free service online that will convert large batches of images, but upload and download times will slow you down. I would instead, recommend using a free offline software such as GIMP which works on Windows, Linux and Mac. You can download GIMP here: https://www.gimp.org/downloads/ Would you like help installing GIMP on your computer?";;;447.9102780999965;;;space;;;space;;;5;;;1.6363166000228375;;;5;;;6.193386900005862;;;5;;;7.035943499999121;;;;;;;;;;;;;;;;;;448.93191859999206;;;12.309890299977269;;;461.32711509999353;;;461.32711509999353;;;461.32711509999353;;;461.32711509999353;;;468.3686815999681;;;468.3686815999681;;;0.5954024000093341;;;;;;;;;;;;;;;;;;7;;;1;;;2023-12-05_16h36.22.077;;;TEST_eye_tracker;;;2023.1.0;;;None;;;
843;;;C:\Users\hi03096\Documents\LLM_EyeTracking_study\responses_files\prompt_843.xlsx;;;"What is a good, free way to scale a large batch of images down? They are of different sizes with the same aspect ratio. The target size is all going to be the same dimensions.";;;843;;;843.1;;;"There are many programs that can accomplish the task of rescaling a large batch of images. Finding a good one for you depends on the details of your environment. Let's start with getting a little more information. What kind of device are you using? For instance, are you using a Windows PC, an iPhone, a Linux server, or something else?";;;0;;;0;;;7;;;7;;;32;;;0;;;1;;;1;;;0;;;;;;;;;;;;;;;;;;;;;;;;;;;;;;;;;;;;;;;;;;;;;;;;;;;;;;"What is a good, free way to scale a large batch of images down? They are of different sizes with the same aspect ratio. The target size is all going to be the same dimensions.";;;"There are many programs that can accomplish the task of rescaling a large batch of images. Finding a good one for you depends on the details of your environment. Let's start with getting a little more information. What kind of device are you using? For instance, are you using a Windows PC, an iPhone, a Linux server, or something else?";;;468.99417069996707;;;space;;;space;;;4;;;1.3911788999685086;;;4;;;2.6701830999809317;;;5;;;3.2880659999791533;;;;;;;;;;;;;;;;;;470.0028312999639;;;10.894883500004653;;;480.99648139998317;;;480.99648139998317;;;480.99648139998317;;;480.99648139998317;;;484.2848570999922;;;484.2848570999922;;;0.5397941999835894;;;;;;;;;;;;;;;;;;7;;;1;;;2023-12-05_16h36.22.077;;;TEST_eye_tracker;;;2023.1.0;;;None;;;
843;;;C:\Users\hi03096\Documents\LLM_EyeTracking_study\responses_files\prompt_843.xlsx;;;"What is a good, free way to scale a large batch of images down? They are of different sizes with the same aspect ratio. The target size is all going to be the same dimensions.";;;;;;;;;0.888;;;;;;0;;;7;;;7;;;32;;;;;;;;;;;;;;;;;;;;;;;;;;;;;;;;;;;;;;;;;;;;;;;;;;;;;;;;;;;;;;;;;;"What is a good, free way to scale a large batch of images down? They are of different sizes with the same aspect ratio. The target size is all going to be the same dimensions.";;;0.888;;;;;;;;;;;;;;;;;;;;;;;;;;;;;;;;;1;;;1.2226559999980964;;;space;;;;;;;;;;;;;;;;;;;;;;;;;;;;;;;;;484.900542999967;;;484.900542999967;;;486.14246599999024;;;486.14246599999024;;;0.5706366000231355;;;7;;;1;;;2023-12-05_16h36.22.077;;;TEST_eye_tracker;;;2023.1.0;;;None;;;
812;;;C:\Users\hi03096\Documents\LLM_EyeTracking_study\responses_files\prompt_812.xlsx;;;what is a "screeching noise";;;812;;;812.1;;;Screeching noise is an unpleasant noise created usually when two hard surfaces rub against each other. A common example is a sound of fingernails on a black board.;;;0;;;0;;;8;;;8;;;1;;;0;;;0;;;0;;;0;;;;;;;;;;;;;;;;;;;;;;;;;;;486.73104299994884;;;487.26089819998015;;;487.26089819998015;;;487.26089819998015;;;487.26089819998015;;;space;;;5.6049100999953225;;;1;;;5.053739800001495;;;what is a "screeching noise";;;Screeching noise is an unpleasant noise created usually when two hard surfaces rub against each other. A common example is a sound of fingernails on a black board.;;;492.8991332000005;;;space;;;space;;;5;;;2.0068452000268735;;;3;;;2.84295329998713;;;5;;;4.022153199999593;;;;;;;;;;;;;;;;;;493.88815949996933;;;5.337269500014372;;;499.3217905999627;;;499.3217905999627;;;499.3217905999627;;;499.3217905999627;;;503.3497019999777;;;503.3497019999777;;;0.460373800015077;;;;;;;;;;;;;;;;;;7;;;1;;;2023-12-05_16h36.22.077;;;TEST_eye_tracker;;;2023.1.0;;;None;;;
812;;;C:\Users\hi03096\Documents\LLM_EyeTracking_study\responses_files\prompt_812.xlsx;;;what is a "screeching noise";;;812;;;812.2;;;"The Pangea theory you're referring to is likely the theory of plate tectonics, which states that the Earth's outer shell is divided into several plates that move and interact with each other. This theory is supported by a range of geological and geophysical observations, including the distribution of earthquakes and volcanic activity, the patterns of mountain ranges and oceanic trenches, and the matching of geological features across continents. Additionally, the theory of plate tectonics helps explain the movement of continents over time and the formation of supercontinents like Pangea.";;;1;;;0;;;8;;;8;;;1;;;0;;;1;;;1;;;1;;;;;;;;;;;;;;;;;;;;;;;;;;;;;;;;;;;;;;;;;;;;;;;;;;;;;;what is a "screeching noise";;;"The Pangea theory you're referring to is likely the theory of plate tectonics, which states that the Earth's outer shell is divided into several plates that move and interact with each other. This theory is supported by a range of geological and geophysical observations, including the distribution of earthquakes and volcanic activity, the patterns of mountain ranges and oceanic trenches, and the matching of geological features across continents. Additionally, the theory of plate tectonics helps explain the movement of continents over time and the formation of supercontinents like Pangea.";;;503.8427013999899;;;space;;;space;;;1;;;1.6341850999742746;;;3;;;3.4945036999997683;;;5;;;5.9833582999999635;;;504.8620586999459;;;;;;;;;;;;;;;504.8620586999459;;;15.386589200003073;;;520.344699899957;;;520.344699899957;;;520.344699899957;;;520.344699899957;;;526.3270706999465;;;526.3270706999465;;;0.9459006999968551;;;;;;;;;;;;;;;;;;7;;;1;;;2023-12-05_16h36.22.077;;;TEST_eye_tracker;;;2023.1.0;;;None;;;
812;;;C:\Users\hi03096\Documents\LLM_EyeTracking_study\responses_files\prompt_812.xlsx;;;what is a "screeching noise";;;;;;;;;0.888;;;;;;0;;;8;;;8;;;1;;;;;;;;;;;;;;;;;;;;;;;;;;;;;;;;;;;;;;;;;;;;;;;;;;;;;;;;;;;;;;;;;;what is a "screeching noise";;;0.888;;;;;;;;;;;;;;;;;;;;;;;;;;;;;;;;;1;;;1.031128800008446;;;space;;;;;;;;;;;;;;;;;;;;;;;;;;;;;;;;;527.3425452999654;;;527.3425452999654;;;528.3920646999613;;;528.3920646999613;;;0.5220766999991611;;;7;;;1;;;2023-12-05_16h36.22.077;;;TEST_eye_tracker;;;2023.1.0;;;None;;;
823;;;C:\Users\hi03096\Documents\LLM_EyeTracking_study\responses_files\prompt_823.xlsx;;;How do I convert WebM video files to mp4 using FFmpeg?;;;823;;;823.1;;;You can easily convert a WebM video to mp4 using FFmpeg using the following command: `ffmpeg -i path/to/video.webm video.mp4`;;;0;;;0;;;9;;;9;;;12;;;0;;;0;;;0;;;0;;;;;;;;;;;;;;;;;;;;;;;;;;;528.9406163999811;;;529.4428580999956;;;529.4428580999956;;;529.4428580999956;;;529.4428580999956;;;space;;;4.349841999995988;;;1;;;3.240979800000787;;;How do I convert WebM video files to mp4 using FFmpeg?;;;You can easily convert a WebM video to mp4 using FFmpeg using the following command: `ffmpeg -i path/to/video.webm video.mp4`;;;533.8228841999662;;;space;;;space;;;3;;;3.2245562999742106;;;3;;;5.17236370005412;;;5;;;5.737979899975471;;;;;;;;;;;;;;;529.4428580999956;;;534.8347128999885;;;5.413908100046683;;;540.3283600999857;;;540.3283600999857;;;540.3283600999857;;;540.3283600999857;;;546.071962099988;;;546.071962099988;;;0.5134617000003345;;;;;;;;;;;;;;;;;;7;;;1;;;2023-12-05_16h36.22.077;;;TEST_eye_tracker;;;2023.1.0;;;None;;;
823;;;C:\Users\hi03096\Documents\LLM_EyeTracking_study\responses_files\prompt_823.xlsx;;;How do I convert WebM video files to mp4 using FFmpeg?;;;823;;;823.3;;;"The simplest way to do the conversion using FFmpeg is to use the following command: ffmpeg -i input.webm output.mp4 Here input.webm is your WebM file to be converted and output.mp4 is the name of the converted mp4 file. Please note that with this command FFmpeg will use its default parameters to do the conversion. Although, the default FFmpeg settings should give acceptable result for most basic use cases, depending on your particular use case they might not be suitable for you. If you will have any further questions, please don't hesitate to ask!";;;2;;;0;;;9;;;9;;;12;;;0;;;1;;;1;;;1;;;;;;;;;;;;;;;;;;;;;;;;;;;;;;;;;;;;;;;;;;;;;;;;;;;;;;How do I convert WebM video files to mp4 using FFmpeg?;;;"The simplest way to do the conversion using FFmpeg is to use the following command: ffmpeg -i input.webm output.mp4 Here input.webm is your WebM file to be converted and output.mp4 is the name of the converted mp4 file. Please note that with this command FFmpeg will use its default parameters to do the conversion. Although, the default FFmpeg settings should give acceptable result for most basic use cases, depending on your particular use case they might not be suitable for you. If you will have any further questions, please don't hesitate to ask!";;;546.6105735999881;;;space;;;space;;;5;;;1.4743789000203833;;;5;;;2.2330070000025444;;;5;;;2.982201399980113;;;;;;;;;;;;;;;;;;547.6293301999685;;;16.212416899972595;;;563.9357832999667;;;563.9357832999667;;;563.9357832999667;;;563.9357832999667;;;566.9244195999927;;;566.9244195999927;;;0.5894135999842547;;;;;;;;;;;;;;;;;;7;;;1;;;2023-12-05_16h36.22.077;;;TEST_eye_tracker;;;2023.1.0;;;None;;;
823;;;C:\Users\hi03096\Documents\LLM_EyeTracking_study\responses_files\prompt_823.xlsx;;;How do I convert WebM video files to mp4 using FFmpeg?;;;;;;;;;0.888;;;;;;0;;;9;;;9;;;12;;;;;;;;;;;;;;;;;;;;;;;;;;;;;;;;;;;;;;;;;;;;;;;;;;;;;;;;;;;;;;;;;;How do I convert WebM video files to mp4 using FFmpeg?;;;0.888;;;;;;;;;;;;;;;;;;;;;;;;;;;;;;;;;2;;;2.3641630000201985;;;space;;;;;;;;;;;;;;;;;;;;;;;;;;;;;;;;;567.5965350999613;;;567.5965350999613;;;569.9833385999664;;;569.9833385999664;;;0.4817118999781087;;;7;;;1;;;2023-12-05_16h36.22.077;;;TEST_eye_tracker;;;2023.1.0;;;None;;;
832;;;C:\Users\hi03096\Documents\LLM_EyeTracking_study\responses_files\prompt_832.xlsx;;;How can I use ChatGPT?;;;832;;;832.2;;;"You can use ChatGPT by going to ChatGPT's website and begin a conversation, just as you did with me.";;;2;;;0;;;10;;;10;;;21;;;0;;;0;;;0;;;1;;;;;;;;;;;;;;;;;;;;;;;;;;;570.4996699999901;;;571.0100055999937;;;571.0100055999937;;;571.0100055999937;;;571.0100055999937;;;space;;;2.1756596000050195;;;1;;;1.5457118999911472;;;How can I use ChatGPT?;;;"You can use ChatGPT by going to ChatGPT's website and begin a conversation, just as you did with me.";;;573.2143851000001;;;space;;;space;;;1;;;3.4703777999966405;;;2;;;6.474672099982854;;;5;;;5.63650730001973;;;;;;;;;;;;;;;;;;574.2361553999945;;;4.406191600020975;;;578.7398561999435;;;578.7398561999435;;;578.7398561999435;;;578.7398561999435;;;584.3802858999697;;;584.3802858999697;;;1.6465048000100069;;;;;;;;;;;;;;;;;;7;;;1;;;2023-12-05_16h36.22.077;;;TEST_eye_tracker;;;2023.1.0;;;None;;;
832;;;C:\Users\hi03096\Documents\LLM_EyeTracking_study\responses_files\prompt_832.xlsx;;;How can I use ChatGPT?;;;832;;;832.1;;;To use ChatGPT you can follow these steps: 1. Go to the website for ChatGPT. 2. Click Sign Up. 3. Enter your Email Address. 4. Confirm your account by clicking the prompt in the email you are sent. 5. Enter a phone number. 6. Type the code that is sent to your phone into the prompt. 7. Enter a prompt for ChatGPT.;;;1;;;0;;;10;;;10;;;21;;;0;;;1;;;1;;;0;;;;;;;;;;;;;;;;;;;;;;;;;;;;;;;;;;;;;;;;;;;;;;;;;;;;;;How can I use ChatGPT?;;;To use ChatGPT you can follow these steps: 1. Go to the website for ChatGPT. 2. Click Sign Up. 3. Enter your Email Address. 4. Confirm your account by clicking the prompt in the email you are sent. 5. Enter a phone number. 6. Type the code that is sent to your phone into the prompt. 7. Enter a prompt for ChatGPT.;;;586.0513228999916;;;space;;;space;;;4;;;1.692248400009703;;;3;;;2.3508184000384063;;;5;;;2.9729664000333287;;;;;;;;;;;;;;;;;;587.0766012999811;;;6.660344899981283;;;593.8300950999837;;;593.8300950999837;;;593.8300950999837;;;593.8300950999837;;;596.808232499985;;;596.808232499985;;;0.5619543999782763;;;;;;;;;;;;;;;;;;7;;;1;;;2023-12-05_16h36.22.077;;;TEST_eye_tracker;;;2023.1.0;;;None;;;
832;;;C:\Users\hi03096\Documents\LLM_EyeTracking_study\responses_files\prompt_832.xlsx;;;How can I use ChatGPT?;;;;;;;;;0.888;;;;;;0;;;10;;;10;;;21;;;;;;;;;;;;;;;;;;;;;;;;;;;;;;;;;;;;;;;;;;;;;;;;;;;;;;;;;;;;;;;;;;How can I use ChatGPT?;;;0.888;;;;;;;;;;;;;;;;;;;;;;;;;;;;;;;;;2;;;1.0547507000155747;;;space;;;;;;;;;;;;;;;;;;;;;;;;;;;;;;;;;597.4576031999895;;;597.4576031999895;;;598.5566234999569;;;598.5566234999569;;;0.44465040002251044;;;7;;;1;;;2023-12-05_16h36.22.077;;;TEST_eye_tracker;;;2023.1.0;;;None;;;
835;;;C:\Users\hi03096\Documents\LLM_EyeTracking_study\responses_files\prompt_835.xlsx;;;Can you help me write a love letter to my wife? But ask me questions that will make the letter so personalized she’ll know only I cloud wrote it. I want it to be romantic and charming.;;;835;;;835.1;;;Some questions to help write a love letter to your wife are How did you meet? What are her interests? What are some inside jokes you have together? What is your favorite memory that that you share together? What hardships have you endured together? Answering these will help in writing a love letter to your wife.;;;0;;;0;;;11;;;11;;;24;;;0;;;0;;;0;;;0;;;;;;;;;;;;;;;;;;;;;;;;;;;599.0348572999937;;;599.5583948999993;;;599.5583948999993;;;599.5583948999993;;;599.5583948999993;;;space;;;12.155877300014254;;;1;;;9.983111799985636;;;Can you help me write a love letter to my wife? But ask me questions that will make the letter so personalized she’ll know only I cloud wrote it. I want it to be romantic and charming.;;;Some questions to help write a love letter to your wife are How did you meet? What are her interests? What are some inside jokes you have together? What is your favorite memory that that you share together? What hardships have you endured together? Answering these will help in writing a love letter to your wife.;;;611.7390162999509;;;space;;;space;;;5;;;1.9450779000180773;;;3;;;3.0095317999948747;;;5;;;3.738114300009329;;;;;;;;;;;;;;;599.5583948999993;;;612.7509380999836;;;10.338289299979806;;;623.185335999995;;;623.185335999995;;;623.185335999995;;;623.185335999995;;;626.9303930999595;;;626.9303930999595;;;0.5342064000433311;;;;;;;;;;;;;;;;;;7;;;1;;;2023-12-05_16h36.22.077;;;TEST_eye_tracker;;;2023.1.0;;;None;;;
835;;;C:\Users\hi03096\Documents\LLM_EyeTracking_study\responses_files\prompt_835.xlsx;;;Can you help me write a love letter to my wife? But ask me questions that will make the letter so personalized she’ll know only I cloud wrote it. I want it to be romantic and charming.;;;835;;;835.3;;;"In order to make it personalized, I will need more information. Please remember not to share personally identifiable information, though.";;;2;;;0;;;11;;;11;;;24;;;0;;;1;;;1;;;1;;;;;;;;;;;;;;;;;;;;;;;;;;;;;;;;;;;;;;;;;;;;;;;;;;;;;;Can you help me write a love letter to my wife? But ask me questions that will make the letter so personalized she’ll know only I cloud wrote it. I want it to be romantic and charming.;;;"In order to make it personalized, I will need more information. Please remember not to share personally identifiable information, though.";;;627.5098696999485;;;space;;;space;;;1;;;3.8434138000011444;;;3;;;5.525951899995562;;;5;;;6.318102199991699;;;;;;;;;;;;;;;;;;628.502805199998;;;3.9869549999712035;;;632.5957382999477;;;632.5957382999477;;;632.5957382999477;;;632.5957382999477;;;638.9146675999509;;;638.9146675999509;;;0.5506053999997675;;;;;;;;;;;;;;;;;;7;;;1;;;2023-12-05_16h36.22.077;;;TEST_eye_tracker;;;2023.1.0;;;None;;;
835;;;C:\Users\hi03096\Documents\LLM_EyeTracking_study\responses_files\prompt_835.xlsx;;;Can you help me write a love letter to my wife? But ask me questions that will make the letter so personalized she’ll know only I cloud wrote it. I want it to be romantic and charming.;;;;;;;;;0.888;;;;;;0;;;11;;;11;;;24;;;;;;;;;;;;;;;;;;;;;;;;;;;;;;;;;;;;;;;;;;;;;;;;;;;;;;;;;;;;;;;;;;Can you help me write a love letter to my wife? But ask me questions that will make the letter so personalized she’ll know only I cloud wrote it. I want it to be romantic and charming.;;;0.888;;;;;;;;;;;;;;;;;;;;;;;;;;;;;;;;;1;;;1.2522036000154912;;;space;;;;;;;;;;;;;;;;;;;;;;;;;;;;;;;;;639.5472974999575;;;639.5472974999575;;;640.8231423999532;;;640.8231423999532;;;0.44187440001405776;;;7;;;1;;;2023-12-05_16h36.22.077;;;TEST_eye_tracker;;;2023.1.0;;;None;;;
849;;;C:\Users\hi03096\Documents\LLM_EyeTracking_study\responses_files\prompt_849.xlsx;;;"What are some necessary skills a programmer must have? (Aside from, obviously, programming)";;;849;;;849.1;;;"Some required skills that are common among programmers include scripting, debugging, project management, version control (git), critical thinking and teamworking. However, different domains of application require different skill sets. As such no two programmers share the exact same skill sets. As an example, while a software engineer can code in a wide diversity of coding languages, a more specialized role such as a machine learning engineer will mainly code in Python.";;;1;;;0;;;12;;;12;;;38;;;0;;;0;;;0;;;0;;;;;;;;;;;;;;;;;;;;;;;;;;;641.283784499974;;;641.7995903999545;;;641.7995903999545;;;641.7995903999545;;;641.7995903999545;;;space;;;3.794013000035193;;;1;;;3.1880177999846637;;;"What are some necessary skills a programmer must have? (Aside from, obviously, programming)";;;"Some required skills that are common among programmers include scripting, debugging, project management, version control (git), critical thinking and teamworking. However, different domains of application require different skill sets. As such no two programmers share the exact same skill sets. As an example, while a software engineer can code in a wide diversity of coding languages, a more specialized role such as a machine learning engineer will mainly code in Python.";;;645.6376295999507;;;space;;;space;;;5;;;3.6960328000131994;;;3;;;4.847144900006242;;;5;;;5.573703599977307;;;;;;;;;;;;;;;641.7995903999545;;;646.6579197999672;;;15.902841999952216;;;662.6501372999628;;;662.6501372999628;;;662.6501372999628;;;662.6501372999628;;;668.2313987999805;;;668.2313987999805;;;0.537827699969057;;;;;;;;;;;;;;;;;;7;;;1;;;2023-12-05_16h36.22.077;;;TEST_eye_tracker;;;2023.1.0;;;None;;;
849;;;C:\Users\hi03096\Documents\LLM_EyeTracking_study\responses_files\prompt_849.xlsx;;;"What are some necessary skills a programmer must have? (Aside from, obviously, programming)";;;849;;;849.2;;;"Being a programmer, essentially, involves solving a puzzle each day with a bunch of other people. So you can imagine that ***good communication skills*** are really important. To figure out what the puzzle is you will also need ***strong analytical skills*** to look at a problem for a few different angles and decide on a course of action. Every now and then, you'll get new colleagues and will have to ***train you coworkers*** to help them get on-board or explain your (or the teams) solution to others. These are the most common requirements for new junior developers.";;;2;;;0;;;12;;;12;;;38;;;0;;;1;;;1;;;1;;;;;;;;;;;;;;;;;;;;;;;;;;;;;;;;;;;;;;;;;;;;;;;;;;;;;;"What are some necessary skills a programmer must have? (Aside from, obviously, programming)";;;"Being a programmer, essentially, involves solving a puzzle each day with a bunch of other people. So you can imagine that ***good communication skills*** are really important. To figure out what the puzzle is you will also need ***strong analytical skills*** to look at a problem for a few different angles and decide on a course of action. Every now and then, you'll get new colleagues and will have to ***train you coworkers*** to help them get on-board or explain your (or the teams) solution to others. These are the most common requirements for new junior developers.";;;668.8183271999587;;;space;;;space;;;1;;;2.045979199989233;;;3;;;3.055295499972999;;;5;;;3.83173049998004;;;;;;;;;;;;;;;;;;669.8076946999645;;;15.929261899960693;;;685.825638099981;;;685.825638099981;;;685.825638099981;;;685.825638099981;;;689.6684868999873;;;689.6684868999873;;;0.47004670003661886;;;;;;;;;;;;;;;;;;7;;;1;;;2023-12-05_16h36.22.077;;;TEST_eye_tracker;;;2023.1.0;;;None;;;
849;;;C:\Users\hi03096\Documents\LLM_EyeTracking_study\responses_files\prompt_849.xlsx;;;"What are some necessary skills a programmer must have? (Aside from, obviously, programming)";;;;;;;;;0.888;;;;;;0;;;12;;;12;;;38;;;;;;;;;;;;;;;;;;;;;;;;;;;;;;;;;;;;;;;;;;;;;;;;;;;;;;;;;;;;;;;;;;"What are some necessary skills a programmer must have? (Aside from, obviously, programming)";;;0.888;;;;;;;;;;;;;;;;;;;;;;;;;;;;;;;;;1;;;1.8803134000045247;;;space;;;;;;;;;;;;;;;;;;;;;;;;;;;;;;;;;690.2162258999888;;;690.2162258999888;;;692.1129454999464;;;692.1129454999464;;;0.6196651000063866;;;7;;;1;;;2023-12-05_16h36.22.077;;;TEST_eye_tracker;;;2023.1.0;;;None;;;
851;;;C:\Users\hi03096\Documents\LLM_EyeTracking_study\responses_files\prompt_851.xlsx;;;How old are the earth?;;;851;;;851.3;;;"Well, no-one know's for sure, of course, but we have made some educated guesses! 4.543 billion years is the best estimate we have today! Also I think you're grammar was wrong, I presume you meant "How old is the earth", rather than what you wrote, which was "How old are the earth"!";;;2;;;0;;;13;;;13;;;40;;;0;;;0;;;0;;;1;;;;;;;;;;;;;;;;;;;;;;;;;;;692.7444867999875;;;693.2421271999483;;;693.2421271999483;;;693.2421271999483;;;693.2421271999483;;;space;;;3.486671600025147;;;1;;;2.8069084999733604;;;How old are the earth?;;;"Well, no-one know's for sure, of course, but we have made some educated guesses! 4.543 billion years is the best estimate we have today! Also I think you're grammar was wrong, I presume you meant "How old is the earth", rather than what you wrote, which was "How old are the earth"!";;;696.7650588999968;;;space;;;space;;;4;;;8.479588399990462;;;1;;;10.409108499996364;;;5;;;10.959588299971074;;;;;;;;;;;;;;;693.2421271999483;;;697.7635420999723;;;30.558759799983818;;;728.4167278999812;;;728.4167278999812;;;728.4167278999812;;;728.4167278999812;;;739.3761755999876;;;739.3761755999876;;;0.5214882000000216;;;;;;;;;;;;;;;;;;7;;;1;;;2023-12-05_16h36.22.077;;;TEST_eye_tracker;;;2023.1.0;;;None;;;
851;;;C:\Users\hi03096\Documents\LLM_EyeTracking_study\responses_files\prompt_851.xlsx;;;How old are the earth?;;;851;;;851.1;;;"The age of the Earth is estimated to be approximately 4.54 billion years. This estimate is based on scientific measurements and analysis of rocks and meteorites, as well as calculations involving radioactive decay rates and other geological and astronomical data. The study of the Earth's history and the processes that have shaped our planet is known as geology, and it is an important field of scientific inquiry that helps us understand the origins and evolution of our world.";;;0;;;0;;;13;;;13;;;40;;;0;;;1;;;1;;;0;;;;;;;;;;;;;;;;;;;;;;;;;;;;;;;;;;;;;;;;;;;;;;;;;;;;;;How old are the earth?;;;"The age of the Earth is estimated to be approximately 4.54 billion years. This estimate is based on scientific measurements and analysis of rocks and meteorites, as well as calculations involving radioactive decay rates and other geological and astronomical data. The study of the Earth's history and the processes that have shaped our planet is known as geology, and it is an important field of scientific inquiry that helps us understand the origins and evolution of our world.";;;739.92217049998;;;space;;;space;;;5;;;1.2840416999533772;;;3;;;2.6541952000116;;;5;;;3.351010699989274;;;740.9290989000001;;;;;;;;;;;;;;;740.9290989000001;;;12.257127900025807;;;753.2871919999598;;;753.2871919999598;;;753.2871919999598;;;753.2871919999598;;;756.6445289999829;;;756.6445289999829;;;0.5252849999815226;;;;;;;;;;;;;;;;;;7;;;1;;;2023-12-05_16h36.22.077;;;TEST_eye_tracker;;;2023.1.0;;;None;;;
851;;;C:\Users\hi03096\Documents\LLM_EyeTracking_study\responses_files\prompt_851.xlsx;;;How old are the earth?;;;;;;;;;0.888;;;;;;0;;;13;;;13;;;40;;;;;;;;;;;;;;;;;;;;;;;;;;;;;;;;;;;;;;;;;;;;;;;;;;;;;;;;;;;;;;;;;;How old are the earth?;;;0.888;;;;;;;;;;;;;;;;;;;;;;;;;;;;;;;;;2;;;1.4101149000343867;;;space;;;;;;;;;;;;;;;;;;;;;;;;;;;;;;;;;757.264141599997;;;757.264141599997;;;758.6977827999508;;;758.6977827999508;;;0.48789099999703467;;;7;;;1;;;2023-12-05_16h36.22.077;;;TEST_eye_tracker;;;2023.1.0;;;None;;;
841;;;C:\Users\hi03096\Documents\LLM_EyeTracking_study\responses_files\prompt_841.xlsx;;;Tell me a bit about Blockbuster.;;;841;;;841.3;;;"The legend of Blockbuster, it was a magical place where you could get goodies and snacks for the feature films that you would rent and take home to watch with your family. These stores were abundant at a time before online streaming was a thing.";;;2;;;0;;;14;;;14;;;30;;;0;;;0;;;0;;;1;;;;;;;;;;;;;;;;;;;;;;;;;;;759.2127579999506;;;759.7316444999888;;;759.7316444999888;;;759.7316444999888;;;759.7316444999888;;;space;;;2.5974584000068717;;;1;;;1.9769006000133231;;;Tell me a bit about Blockbuster.;;;"The legend of Blockbuster, it was a magical place where you could get goodies and snacks for the feature films that you would rent and take home to watch with your family. These stores were abundant at a time before online streaming was a thing.";;;762.3624539999873;;;space;;;space;;;2;;;1.9634433999890462;;;3;;;2.8183645000099204;;;5;;;3.459637699997984;;;;;;;;;;;;;;;759.7316444999888;;;763.3689488999662;;;9.88013140001567;;;773.3353910999722;;;773.3353910999722;;;773.3353910999722;;;773.3353910999722;;;776.8021268999437;;;776.8021268999437;;;0.6634629999753088;;;;;;;;;;;;;;;;;;7;;;1;;;2023-12-05_16h36.22.077;;;TEST_eye_tracker;;;2023.1.0;;;None;;;
841;;;C:\Users\hi03096\Documents\LLM_EyeTracking_study\responses_files\prompt_841.xlsx;;;Tell me a bit about Blockbuster.;;;841;;;841.1;;;"Blockbuster LLC was an American-based provider of home movie and video game rental services through video rental shops, DVD-by-mail, streaming, video on demand, and cinema theater. It was one of the largest video rental chains in the world, with thousands of locations worldwide, operating from 1985 until its decline in the early-2010s. Blockbuster became widely known for its distinctive blue-and-yellow logo and for its innovations in the rental industry, such as the establishment of late fees for rental movies. The company filed for bankruptcy in 2010 and was ultimately acquired by Dish Network in 2011. Today, the Blockbuster brand is primarily used by Dish for its digital video streaming services.";;;0;;;0;;;14;;;14;;;30;;;0;;;1;;;1;;;0;;;;;;;;;;;;;;;;;;;;;;;;;;;;;;;;;;;;;;;;;;;;;;;;;;;;;;Tell me a bit about Blockbuster.;;;"Blockbuster LLC was an American-based provider of home movie and video game rental services through video rental shops, DVD-by-mail, streaming, video on demand, and cinema theater. It was one of the largest video rental chains in the world, with thousands of locations worldwide, operating from 1985 until its decline in the early-2010s. Blockbuster became widely known for its distinctive blue-and-yellow logo and for its innovations in the rental industry, such as the establishment of late fees for rental movies. The company filed for bankruptcy in 2010 and was ultimately acquired by Dish Network in 2011. Today, the Blockbuster brand is primarily used by Dish for its digital video streaming services.";;;777.4998265999602;;;space;;;space;;;5;;;1.701796800014563;;;3;;;2.3397945999749936;;;5;;;3.1466734999557957;;;;;;;;;;;;;;;;;;778.515374999959;;;22.853659100015648;;;801.4654211999732;;;801.4654211999732;;;801.4654211999732;;;801.4654211999732;;;804.6260800999589;;;804.6260800999589;;;0.616359600040596;;;;;;;;;;;;;;;;;;7;;;1;;;2023-12-05_16h36.22.077;;;TEST_eye_tracker;;;2023.1.0;;;None;;;
841;;;C:\Users\hi03096\Documents\LLM_EyeTracking_study\responses_files\prompt_841.xlsx;;;Tell me a bit about Blockbuster.;;;;;;;;;0.888;;;;;;0;;;14;;;14;;;30;;;;;;;;;;;;;;;;;;;;;;;;;;;;;;;;;;;;;;;;;;;;;;;;;;;;;;;;;;;;;;;;;;Tell me a bit about Blockbuster.;;;0.888;;;;;;;;;;;;;;;;;;;;;;;;;;;;;;;;;2;;;1.4754974999814294;;;space;;;;;;;;;;;;;;;;;;;;;;;;;;;;;;;;;805.3393166999449;;;805.3393166999449;;;806.8395174999605;;;806.8395174999605;;;0.48207200004253536;;;7;;;1;;;2023-12-05_16h36.22.077;;;TEST_eye_tracker;;;2023.1.0;;;None;;;
821;;;C:\Users\hi03096\Documents\LLM_EyeTracking_study\responses_files\prompt_821.xlsx;;;Create a lead line in the style of Aphex Twin;;;821;;;821.1;;;"Here's a lead line in the style of Aphex Twin: Using a heavily modulated and glitchy synth patch, create a melody that is constantly evolving and unpredictable. Start with a simple motif and gradually add more complexity and dissonance, using quick arpeggios and sudden pauses to keep the listener on edge. Add subtle effects like reverb and delay to create a sense of space and depth, while also distorting the sound to give it a rough and gritty edge. Play with the timing and rhythm of the notes, experimenting with offbeat accents and syncopation to create a sense of tension and release. Overall, aim for a sound that is both chaotic and hypnotic, drawing the listener into a dark and twisted sonic landscape.";;;0;;;0;;;15;;;15;;;10;;;0;;;0;;;0;;;0;;;;;;;;;;;;;;;;;;;;;;;;;;;807.3859927999438;;;807.8806727999472;;;807.8806727999472;;;807.8806727999472;;;807.8806727999472;;;space;;;5.1363940999726765;;;2;;;4.371009199996479;;;Create a lead line in the style of Aphex Twin;;;"Here's a lead line in the style of Aphex Twin: Using a heavily modulated and glitchy synth patch, create a melody that is constantly evolving and unpredictable. Start with a simple motif and gradually add more complexity and dissonance, using quick arpeggios and sudden pauses to keep the listener on edge. Add subtle effects like reverb and delay to create a sense of space and depth, while also distorting the sound to give it a rough and gritty edge. Play with the timing and rhythm of the notes, experimenting with offbeat accents and syncopation to create a sense of tension and release. Overall, aim for a sound that is both chaotic and hypnotic, drawing the listener into a dark and twisted sonic landscape.";;;813.0508366999566;;;None;;;None;;;None;;;None;;;None;;;None;;;None;;;None;;;;;;;;;;;;;;;;;;;;;;;;;;;;;;;;;;;;;;;;;;;;;;;;;;;;;;;;;;;;7;;;1;;;2023-12-05_16h36.22.077;;;TEST_eye_tracker;;;2023.1.0;;;None;;;
821;;;C:\Users\hi03096\Documents\LLM_EyeTracking_study\responses_files\prompt_821.xlsx;;;Create a lead line in the style of Aphex Twin;;;821;;;821.2;;;"How about this: "With glitchy beats and ethereal synths, the music of Aphex Twin transports you to an otherworldly realm of sound and sensation."";;;2;;;0;;;15;;;15;;;10;;;0;;;1;;;1;;;1;;;;;;;;;;;;;;;;;;;;;;;;;;;;;;;;;;;;;;;;;;;;;;;;;;;;;;Create a lead line in the style of Aphex Twin;;;"How about this: "With glitchy beats and ethereal synths, the music of Aphex Twin transports you to an otherworldly realm of sound and sensation."";;;814.1039113999577;;;None;;;None;;;None;;;None;;;None;;;None;;;None;;;None;;;815.1889404999674;;;;;;;;;;;;;;;;;;;;;;;;;;;;;;;;;;;;;;;;;;;;;;;;;;;;;;;;;7;;;1;;;2023-12-05_16h36.22.077;;;TEST_eye_tracker;;;2023.1.0;;;None;;;
821;;;C:\Users\hi03096\Documents\LLM_EyeTracking_study\responses_files\prompt_821.xlsx;;;Create a lead line in the style of Aphex Twin;;;;;;;;;0.888;;;;;;0;;;15;;;15;;;10;;;;;;;;;;;;;;;;;;;;;;;;;;;;;;;;;;;;;;;;;;;;;;;;;;;;;;;;;;;;;;;;;;Create a lead line in the style of Aphex Twin;;;0.888;;;;;;;;;;;;;;;;;;;;;;;;;;;;;;;;;None;;;None;;;None;;;;;;;;;;;;;;;;;;;;;;;;;;;;;;;;;;;;;;;;;;;;;;;;7;;;1;;;2023-12-05_16h36.22.077;;;TEST_eye_tracker;;;2023.1.0;;;None;;;
838;;;C:\Users\hi03096\Documents\LLM_EyeTracking_study\responses_files\prompt_838.xlsx;;;"Could you find the equation that gives the following number sequence : 1, 4, 13, 40, 121, 364, etc.";;;838;;;838.1;;;"The sequence of numbers 1, 4, 13, 40, 121, 364 follows the pattern that the next number is 3 times the current number plus one. So one possible equation that gives this number sequence is $x_{n+1} = 3 x_n + 1$.";;;0;;;0;;;16;;;16;;;27;;;0;;;0;;;0;;;0;;;;;;;;;;;;;;;;;;;;;;;;;;;815.1889404999674;;;815.7087593999458;;;815.7087593999458;;;815.7087593999458;;;815.7087593999458;;;space;;;49.14960200001951;;;1;;;47.80273389996728;;;"Could you find the equation that gives the following number sequence : 1, 4, 13, 40, 121, 364, etc.";;;"The sequence of numbers 1, 4, 13, 40, 121, 364 follows the pattern that the next number is 3 times the current number plus one. So one possible equation that gives this number sequence is $x_{n+1} = 3 x_n + 1$.";;;864.8984596999944;;;space;;;space;;;4;;;2.41550439997809;;;3;;;4.449461599986535;;;5;;;5.0459309999714606;;;;;;;;;;;;;;;815.7087593999458;;;865.913775199966;;;37.193109400046524;;;903.1926794999745;;;903.1926794999745;;;903.1926794999745;;;903.1926794999745;;;908.2502209999948;;;908.2502209999948;;;1.7351988999871537;;;;;;;;;;;;;;;;;;7;;;1;;;2023-12-05_16h36.22.077;;;TEST_eye_tracker;;;2023.1.0;;;None;;;
838;;;C:\Users\hi03096\Documents\LLM_EyeTracking_study\responses_files\prompt_838.xlsx;;;"Could you find the equation that gives the following number sequence : 1, 4, 13, 40, 121, 364, etc.";;;838;;;838.2;;;"The equation that gives such a number sequence is a geometric sequence of base 3 added to the previous result in the sequence starting with 1. I.e. 1+3^0=1, 1+3^1=4, 4+3^2=13, 13+3^3=40, 40+3^4=121, and so on.";;;1;;;0;;;16;;;16;;;27;;;0;;;1;;;1;;;1;;;;;;;;;;;;;;;;;;;;;;;;;;;;;;;;;;;;;;;;;;;;;;;;;;;;;;"Could you find the equation that gives the following number sequence : 1, 4, 13, 40, 121, 364, etc.";;;"The equation that gives such a number sequence is a geometric sequence of base 3 added to the previous result in the sequence starting with 1. I.e. 1+3^0=1, 1+3^1=4, 4+3^2=13, 13+3^3=40, 40+3^4=121, and so on.";;;910.0183685999946;;;space;;;space;;;5;;;1.93338300002506;;;3;;;3.0775369000039063;;;5;;;3.513730999955442;;;;;;;;;;;;;;;;;;911.039795299992;;;6.273125200008508;;;917.3913111999864;;;917.3913111999864;;;917.3913111999864;;;917.3913111999864;;;920.9117454999941;;;920.9117454999941;;;0.4739278999622911;;;;;;;;;;;;;;;;;;7;;;1;;;2023-12-05_16h36.22.077;;;TEST_eye_tracker;;;2023.1.0;;;None;;;
838;;;C:\Users\hi03096\Documents\LLM_EyeTracking_study\responses_files\prompt_838.xlsx;;;"Could you find the equation that gives the following number sequence : 1, 4, 13, 40, 121, 364, etc.";;;;;;;;;0.888;;;;;;0;;;16;;;16;;;27;;;;;;;;;;;;;;;;;;;;;;;;;;;;;;;;;;;;;;;;;;;;;;;;;;;;;;;;;;;;;;;;;;"Could you find the equation that gives the following number sequence : 1, 4, 13, 40, 121, 364, etc.";;;0.888;;;;;;;;;;;;;;;;;;;;;;;;;;;;;;;;;2;;;1.2647637000191025;;;space;;;;;;;;;;;;;;;;;;;;;;;;;;;;;;;;;921.4968664999469;;;921.4968664999469;;;922.8007427999983;;;922.8007427999983;;;0.424083000048995;;;7;;;1;;;2023-12-05_16h36.22.077;;;TEST_eye_tracker;;;2023.1.0;;;None;;;
827;;;C:\Users\hi03096\Documents\LLM_EyeTracking_study\responses_files\prompt_827.xlsx;;;"Describe a detailed strategy and tactics of how can Ukraine defend itself against Russian aggression, take back its territory and win the war?";;;827;;;827.2;;;"I'm not the one in charge of war stratagems, I can't give any absolute stratagems especially when it has to do with human lives and not just a knowledge game.";;;3;;;0;;;17;;;17;;;16;;;0;;;0;;;0;;;1;;;;;;;;;;;;;;;;;;;;;;;;;;;923.2478503999882;;;923.7804082999937;;;923.7804082999937;;;923.7804082999937;;;923.7804082999937;;;space;;;6.188434599956963;;;1;;;5.472713400027715;;;"Describe a detailed strategy and tactics of how can Ukraine defend itself against Russian aggression, take back its territory and win the war?";;;"I'm not the one in charge of war stratagems, I can't give any absolute stratagems especially when it has to do with human lives and not just a knowledge game.";;;930.034269799944;;;space;;;space;;;1;;;2.1221550999907777;;;1;;;3.461038099951111;;;5;;;4.02994649996981;;;;;;;;;;;;;;;;;;931.0279635999468;;;12.556781100051012;;;943.6633836999536;;;943.6633836999536;;;943.6633836999536;;;943.6633836999536;;;947.6952155999606;;;947.6952155999606;;;0.6664596000337042;;;;;;;;;;;;;;;;;;7;;;1;;;2023-12-05_16h36.22.077;;;TEST_eye_tracker;;;2023.1.0;;;None;;;
827;;;C:\Users\hi03096\Documents\LLM_EyeTracking_study\responses_files\prompt_827.xlsx;;;"Describe a detailed strategy and tactics of how can Ukraine defend itself against Russian aggression, take back its territory and win the war?";;;827;;;827.1;;;"That’s a very complex and sensitive question. I’m not an expert on military affairs, but based on some web sources, Ukraine’s defense strategy seems to involve: - Holding key cities like Bakhmut as long as possible to prevent Russian advances. - Seeking diplomatic and economic support from the US and NATO allies. - Adopting NATO battle tactics and modernizing its military equipment with Western assistance. - Contesting Russian attacks on the ground, in the air and in cyberspace. However, these sources may not reflect the current situation or the full range of options available to Ukraine. The outcome of the war is uncertain and depends on many factors beyond my knowledge.";;;1;;;0;;;17;;;17;;;16;;;0;;;1;;;1;;;0;;;;;;;;;;;;;;;;;;;;;;;;;;;;;;;;;;;;;;;;;;;;;;;;;;;;;;"Describe a detailed strategy and tactics of how can Ukraine defend itself against Russian aggression, take back its territory and win the war?";;;"That’s a very complex and sensitive question. I’m not an expert on military affairs, but based on some web sources, Ukraine’s defense strategy seems to involve: - Holding key cities like Bakhmut as long as possible to prevent Russian advances. - Seeking diplomatic and economic support from the US and NATO allies. - Adopting NATO battle tactics and modernizing its military equipment with Western assistance. - Contesting Russian attacks on the ground, in the air and in cyberspace. However, these sources may not reflect the current situation or the full range of options available to Ukraine. The outcome of the war is uncertain and depends on many factors beyond my knowledge.";;;948.413039899955;;;space;;;space;;;5;;;1.5669969999580644;;;3;;;3.3429681999841705;;;5;;;4.0847065999987535;;;;;;;;;;;;;;;;;;949.4147031999892;;;20.474672699987423;;;969.9823218999663;;;969.9823218999663;;;969.9823218999663;;;969.9823218999663;;;974.0750803999836;;;974.0750803999836;;;0.5339074999792501;;;;;;;;;;;;;;;;;;7;;;1;;;2023-12-05_16h36.22.077;;;TEST_eye_tracker;;;2023.1.0;;;None;;;
827;;;C:\Users\hi03096\Documents\LLM_EyeTracking_study\responses_files\prompt_827.xlsx;;;"Describe a detailed strategy and tactics of how can Ukraine defend itself against Russian aggression, take back its territory and win the war?";;;;;;;;;0.888;;;;;;0;;;17;;;17;;;16;;;;;;;;;;;;;;;;;;;;;;;;;;;;;;;;;;;;;;;;;;;;;;;;;;;;;;;;;;;;;;;;;;"Describe a detailed strategy and tactics of how can Ukraine defend itself against Russian aggression, take back its territory and win the war?";;;0.888;;;;;;;;;;;;;;;;;;;;;;;;;;;;;;;;;2;;;1.1931725000031292;;;space;;;;;;;;;;;;;;;;;;;;;;;;;;;;;;;;;974.8069965999457;;;974.8069965999457;;;976.0372814000002;;;976.0372814000002;;;0.4372547999955714;;;7;;;1;;;2023-12-05_16h36.22.077;;;TEST_eye_tracker;;;2023.1.0;;;None;;;
833;;;C:\Users\hi03096\Documents\LLM_EyeTracking_study\responses_files\prompt_833.xlsx;;;What are good and free alternatives to gmail?;;;833;;;833.1;;;There are several free alternatives to Gmail that you could consider. Here are some options available for you with links provided: - Proton Mail (https://proton.me) - Tutanota (https://tutanota.com) - Outlook (https://outlook.com) - Yandex Mail (https://mail.yandex.com) - Yahoo! Mail (https://mail.yahoo.com) - Zoho Mail (https://www.zoho.com/mail) These options I've provided are one of the few free email services that you can consider as alternatives to Gmail. I would recommend trying a few of them out to see which one best fits your needs.;;;0;;;0;;;18;;;18;;;22;;;0;;;0;;;0;;;0;;;;;;;;;;;;;;;;;;;;;;;;;;;976.5038236999535;;;977.0157693999936;;;977.0157693999936;;;977.0157693999936;;;977.0157693999936;;;space;;;2.481861600012053;;;1;;;1.885550000006333;;;What are good and free alternatives to gmail?;;;There are several free alternatives to Gmail that you could consider. Here are some options available for you with links provided: - Proton Mail (https://proton.me) - Tutanota (https://tutanota.com) - Outlook (https://outlook.com) - Yandex Mail (https://mail.yandex.com) - Yahoo! Mail (https://mail.yahoo.com) - Zoho Mail (https://www.zoho.com/mail) These options I've provided are one of the few free email services that you can consider as alternatives to Gmail. I would recommend trying a few of them out to see which one best fits your needs.;;;979.5298361999448;;;space;;;space;;;5;;;1.8022188000031747;;;4;;;3.823526500025764;;;5;;;4.475766800052952;;;;;;;;;;;;;;;;;;980.537772599957;;;10.879305999958888;;;991.5193639999488;;;991.5193639999488;;;991.5193639999488;;;991.5193639999488;;;995.9988089999533;;;995.9988089999533;;;0.6507740000379272;;;;;;;;;;;;;;;;;;7;;;1;;;2023-12-05_16h36.22.077;;;TEST_eye_tracker;;;2023.1.0;;;None;;;
833;;;C:\Users\hi03096\Documents\LLM_EyeTracking_study\responses_files\prompt_833.xlsx;;;What are good and free alternatives to gmail?;;;833;;;833.3;;;"There are many good alternatives to GMail, such as AOL, Yahoo, Outlook, and Protomail.";;;2;;;0;;;18;;;18;;;22;;;0;;;1;;;1;;;1;;;;;;;;;;;;;;;;;;;;;;;;;;;;;;;;;;;;;;;;;;;;;;;;;;;;;;What are good and free alternatives to gmail?;;;"There are many good alternatives to GMail, such as AOL, Yahoo, Outlook, and Protomail.";;;996.6875384999439;;;space;;;space;;;2;;;2.1161381999845617;;;3;;;2.8832239999901503;;;5;;;3.5677896999986842;;;;;;;;;;;;;;;;;;997.6960333999596;;;3.4733517999993637;;;1001.2562408999656;;;1001.2562408999656;;;1001.2562408999656;;;1001.2562408999656;;;1004.8365393999848;;;1004.8365393999848;;;0.5337643999955617;;;;;;;;;;;;;;;;;;7;;;1;;;2023-12-05_16h36.22.077;;;TEST_eye_tracker;;;2023.1.0;;;None;;;
833;;;C:\Users\hi03096\Documents\LLM_EyeTracking_study\responses_files\prompt_833.xlsx;;;What are good and free alternatives to gmail?;;;;;;;;;0.888;;;;;;0;;;18;;;18;;;22;;;;;;;;;;;;;;;;;;;;;;;;;;;;;;;;;;;;;;;;;;;;;;;;;;;;;;;;;;;;;;;;;;What are good and free alternatives to gmail?;;;0.888;;;;;;;;;;;;;;;;;;;;;;;;;;;;;;;;;1;;;1.3530515999882482;;;space;;;;;;;;;;;;;;;;;;;;;;;;;;;;;;;;;1005.477459799964;;;1005.477459799964;;;1006.8741418999853;;;1006.8741418999853;;;0.5909365999978036;;;7;;;1;;;2023-12-05_16h36.22.077;;;TEST_eye_tracker;;;2023.1.0;;;None;;;
846;;;C:\Users\hi03096\Documents\LLM_EyeTracking_study\responses_files\prompt_846.xlsx;;;"I am about to finish high school and at the stage of choosing different university programs to apply to. Could you suggest some ways to help me with making a decision like that? What things should I consider before choosing where to send my applications and how to improve my chances to be accepted?";;;846;;;846.2;;;"You should send you applications to as many universities as possible, to increase the likelihood of getting accepted. You should get letters of recommendations from teachers, or former employers for part time jobs. The best thing you can do, other than getting high grades, is get community service or volunteer work at local charities.";;;2;;;0;;;19;;;19;;;35;;;0;;;0;;;0;;;1;;;;;;;;;;;;;;;;;;;;;;;;;;;1007.485658199992;;;1008.0167247999925;;;1008.0167247999925;;;1008.0167247999925;;;1008.0167247999925;;;space;;;17.04914049996296;;;1;;;16.554707399976905;;;"I am about to finish high school and at the stage of choosing different university programs to apply to. Could you suggest some ways to help me with making a decision like that? What things should I consider before choosing where to send my applications and how to improve my chances to be accepted?";;;"You should send you applications to as many universities as possible, to increase the likelihood of getting accepted. You should get letters of recommendations from teachers, or former employers for part time jobs. The best thing you can do, other than getting high grades, is get community service or volunteer work at local charities.";;;1025.0921963999863;;;space;;;space;;;4;;;1.9568199000204913;;;3;;;3.0317726000212133;;;5;;;3.4649994000210427;;;;;;;;;;;;;;;;;;1026.1021722999867;;;8.356324699998368;;;1034.5456317999633;;;1034.5456317999633;;;1034.5456317999633;;;1034.5456317999633;;;1038.0190048999502;;;1038.0190048999502;;;0.4622078000102192;;;;;;;;;;;;;;;;;;7;;;1;;;2023-12-05_16h36.22.077;;;TEST_eye_tracker;;;2023.1.0;;;None;;;
846;;;C:\Users\hi03096\Documents\LLM_EyeTracking_study\responses_files\prompt_846.xlsx;;;"I am about to finish high school and at the stage of choosing different university programs to apply to. Could you suggest some ways to help me with making a decision like that? What things should I consider before choosing where to send my applications and how to improve my chances to be accepted?";;;846;;;846.1;;;"Send as many applications as you can, make sure to target several dream schools as well as having a wide range of backups at several tiers of preference. The more you apply to, the better. Don't worry about application fees, they'll all be worth it in the end.";;;1;;;0;;;19;;;19;;;35;;;0;;;1;;;1;;;0;;;;;;;;;;;;;;;;;;;;;;;;;;;;;;;;;;;;;;;;;;;;;;;;;;;;;;"I am about to finish high school and at the stage of choosing different university programs to apply to. Could you suggest some ways to help me with making a decision like that? What things should I consider before choosing where to send my applications and how to improve my chances to be accepted?";;;"Send as many applications as you can, make sure to target several dream schools as well as having a wide range of backups at several tiers of preference. The more you apply to, the better. Don't worry about application fees, they'll all be worth it in the end.";;;1038.505700699985;;;space;;;space;;;4;;;2.05344339995645;;;3;;;3.7401149999932386;;;5;;;4.4677898999652825;;;;;;;;;;;;;;;;;;1039.5134241999476;;;8.480715800018515;;;1048.076375399949;;;1048.076375399949;;;1048.076375399949;;;1048.076375399949;;;1052.5579428999918;;;1052.5579428999918;;;0.49920290004229173;;;;;;;;;;;;;;;;;;7;;;1;;;2023-12-05_16h36.22.077;;;TEST_eye_tracker;;;2023.1.0;;;None;;;
846;;;C:\Users\hi03096\Documents\LLM_EyeTracking_study\responses_files\prompt_846.xlsx;;;"I am about to finish high school and at the stage of choosing different university programs to apply to. Could you suggest some ways to help me with making a decision like that? What things should I consider before choosing where to send my applications and how to improve my chances to be accepted?";;;;;;;;;0.888;;;;;;0;;;19;;;19;;;35;;;;;;;;;;;;;;;;;;;;;;;;;;;;;;;;;;;;;;;;;;;;;;;;;;;;;;;;;;;;;;;;;;"I am about to finish high school and at the stage of choosing different university programs to apply to. Could you suggest some ways to help me with making a decision like that? What things should I consider before choosing where to send my applications and how to improve my chances to be accepted?";;;0.888;;;;;;;;;;;;;;;;;;;;;;;;;;;;;;;;;1;;;3.5375212999642827;;;space;;;;;;;;;;;;;;;;;;;;;;;;;;;;;;;;;1053.1760605999734;;;1053.1760605999734;;;1056.7334959;;;1056.7334959;;;2.2436037000152282;;;7;;;1;;;2023-12-05_16h36.22.077;;;TEST_eye_tracker;;;2023.1.0;;;None;;;
825;;;C:\Users\hi03096\Documents\LLM_EyeTracking_study\responses_files\prompt_825.xlsx;;;What are the mathematical requirements needed to get into neural networks?;;;825;;;825.1;;;"You should have a good understanding of: - linear algebra, especially of matrix operations - calculus, including computing derivatives - probabilities and statistics Do you want me to detail each of this requirements?";;;0;;;0;;;20;;;20;;;14;;;0;;;0;;;0;;;0;;;;;;;;;;;;;;;;;;;;;;;;;;;1058.993766999978;;;1059.4959899999667;;;1059.4959899999667;;;1059.4959899999667;;;1059.4959899999667;;;space;;;3.1371739999740385;;;1;;;2.519648999965284;;;What are the mathematical requirements needed to get into neural networks?;;;"You should have a good understanding of: - linear algebra, especially of matrix operations - calculus, including computing derivatives - probabilities and statistics Do you want me to detail each of this requirements?";;;1062.678676099982;;;space;;;space;;;4;;;1.4751881000120193;;;4;;;2.5288046000059694;;;5;;;3.1624002999742515;;;;;;;;;;;;;;;1059.4959899999667;;;1063.6863127999823;;;5.347210799984168;;;1069.1328591999481;;;1069.1328591999481;;;1069.1328591999481;;;1069.1328591999481;;;1072.3003434999846;;;1072.3003434999846;;;0.500907100038603;;;;;;;;;;;;;;;;;;7;;;1;;;2023-12-05_16h36.22.077;;;TEST_eye_tracker;;;2023.1.0;;;None;;;
825;;;C:\Users\hi03096\Documents\LLM_EyeTracking_study\responses_files\prompt_825.xlsx;;;What are the mathematical requirements needed to get into neural networks?;;;825;;;825.2;;;"The mathematical requirements to get into neural networks would likely include advanced algebra, trigonometry, linear algebra, and calculus at minimum.";;;1;;;0;;;20;;;20;;;14;;;0;;;1;;;1;;;1;;;;;;;;;;;;;;;;;;;;;;;;;;;;;;;;;;;;;;;;;;;;;;;;;;;;;;What are the mathematical requirements needed to get into neural networks?;;;"The mathematical requirements to get into neural networks would likely include advanced algebra, trigonometry, linear algebra, and calculus at minimum.";;;1072.8398219999508;;;space;;;space;;;3;;;3.4400461000041105;;;2;;;1.9606633999501355;;;5;;;3.9938513000379317;;;;;;;;;;;;;;;;;;1073.838000299991;;;3.9156318999594077;;;1077.8474042999442;;;1077.8474042999442;;;1077.8474042999442;;;1077.8474042999442;;;1081.8446145999478;;;1081.8446145999478;;;0.5572505999589339;;;;;;;;;;;;;;;;;;7;;;1;;;2023-12-05_16h36.22.077;;;TEST_eye_tracker;;;2023.1.0;;;None;;;
825;;;C:\Users\hi03096\Documents\LLM_EyeTracking_study\responses_files\prompt_825.xlsx;;;What are the mathematical requirements needed to get into neural networks?;;;;;;;;;0.888;;;;;;0;;;20;;;20;;;14;;;;;;;;;;;;;;;;;;;;;;;;;;;;;;;;;;;;;;;;;;;;;;;;;;;;;;;;;;;;;;;;;;What are the mathematical requirements needed to get into neural networks?;;;0.888;;;;;;;;;;;;;;;;;;;;;;;;;;;;;;;;;1;;;2.4999122000299394;;;space;;;;;;;;;;;;;;;;;;;;;;;;;;;;;;;;;1082.5218687999877;;;1082.5218687999877;;;1085.0464335999568;;;1085.0464335999568;;;0.47599569999147207;;;7;;;1;;;2023-12-05_16h36.22.077;;;TEST_eye_tracker;;;2023.1.0;;;None;;;
831;;;C:\Users\hi03096\Documents\LLM_EyeTracking_study\responses_files\prompt_831.xlsx;;;Write me a code to add to a Google website I made that will make a ball fallow the mouse pointer;;;831;;;831.2;;;Here is a link to a tutorial on how to make a 3D object follow the cursor in a webpage: https://stackoverflow.com/questions/63973759/how-to-make-a-3d-object-follow-cursor-in-a-webpage. I hope this helps!;;;2;;;0;;;21;;;21;;;20;;;0;;;0;;;0;;;1;;;;;;;;;;;;;;;;;;;;;;;;;;;1085.5440617999993;;;1086.070869999996;;;1086.070869999996;;;1086.070869999996;;;1086.070869999996;;;space;;;9.523030599986669;;;1;;;8.572063500003424;;;Write me a code to add to a Google website I made that will make a ball fallow the mouse pointer;;;Here is a link to a tutorial on how to make a 3D object follow the cursor in a webpage: https://stackoverflow.com/questions/63973759/how-to-make-a-3d-object-follow-cursor-in-a-webpage. I hope this helps!;;;1095.6201026999624;;;space;;;space;;;4;;;3.8695413999957964;;;3;;;5.047820599982515;;;5;;;5.639852200052701;;;;;;;;;;;;;;;;;;1096.62926159997;;;9.044233199965674;;;1105.7716879999498;;;1105.7716879999498;;;1105.7716879999498;;;1105.7716879999498;;;1111.4145859999699;;;1111.4145859999699;;;1.059669499984011;;;;;;;;;;;;;;;;;;7;;;1;;;2023-12-05_16h36.22.077;;;TEST_eye_tracker;;;2023.1.0;;;None;;;
831;;;C:\Users\hi03096\Documents\LLM_EyeTracking_study\responses_files\prompt_831.xlsx;;;Write me a code to add to a Google website I made that will make a ball fallow the mouse pointer;;;831;;;831.1;;;"Could you first please provide more information related to which programming language your website uses? I can code it right away, but i want to make sure that it fits your specific parameters.";;;1;;;0;;;21;;;21;;;20;;;0;;;1;;;1;;;0;;;;;;;;;;;;;;;;;;;;;;;;;;;;;;;;;;;;;;;;;;;;;;;;;;;;;;Write me a code to add to a Google website I made that will make a ball fallow the mouse pointer;;;"Could you first please provide more information related to which programming language your website uses? I can code it right away, but i want to make sure that it fits your specific parameters.";;;1112.503735199978;;;space;;;space;;;5;;;1.4020592999877408;;;4;;;3.3853166999761015;;;5;;;4.931460399995558;;;;;;;;;;;;;;;;;;1113.5137018999667;;;5.3991087000467815;;;1118.9915803999756;;;1118.9915803999756;;;1118.9915803999756;;;1118.9915803999756;;;1123.9355777999735;;;1123.9355777999735;;;0.4497311000013724;;;;;;;;;;;;;;;;;;7;;;1;;;2023-12-05_16h36.22.077;;;TEST_eye_tracker;;;2023.1.0;;;None;;;
831;;;C:\Users\hi03096\Documents\LLM_EyeTracking_study\responses_files\prompt_831.xlsx;;;Write me a code to add to a Google website I made that will make a ball fallow the mouse pointer;;;;;;;;;0.888;;;;;;0;;;21;;;21;;;20;;;;;;;;;;;;;;;;;;;;;;;;;;;;;;;;;;;;;;;;;;;;;;;;;;;;;;;;;;;;;;;;;;Write me a code to add to a Google website I made that will make a ball fallow the mouse pointer;;;0.888;;;;;;;;;;;;;;;;;;;;;;;;;;;;;;;;;2;;;1.220741100027226;;;space;;;;;;;;;;;;;;;;;;;;;;;;;;;;;;;;;1124.5076410999754;;;1124.5076410999754;;;1125.763981199998;;;1125.763981199998;;;0.5090604000142775;;;7;;;1;;;2023-12-05_16h36.22.077;;;TEST_eye_tracker;;;2023.1.0;;;None;;;
811;;;C:\Users\hi03096\Documents\LLM_EyeTracking_study\responses_files\prompt_811.xlsx;;;Could you list the three largest countries in Europe for me?;;;811;;;811.1;;;"The three largest countries in Europe by area are Russia, Ukraine, and France.";;;0;;;0;;;22;;;22;;;0;;;0;;;0;;;0;;;0;;;;;;;;;;;;;;;;;;;;;;;;;;;;;;;;;;;;;;;;;;None;;;;;;None;;;None;;;Could you list the three largest countries in Europe for me?;;;"The three largest countries in Europe by area are Russia, Ukraine, and France.";;;;;;None;;;None;;;None;;;None;;;None;;;None;;;None;;;None;;;;;;;;;;;;;;;;;;;;;;;;;;;;;;;;;;;;;;;;;;;;;;;;;;;;;;;;;;;;7;;;1;;;2023-12-05_16h36.22.077;;;TEST_eye_tracker;;;2023.1.0;;;None;;;
811;;;C:\Users\hi03096\Documents\LLM_EyeTracking_study\responses_files\prompt_811.xlsx;;;Could you list the three largest countries in Europe for me?;;;811;;;811.3;;;"The three largest countries in Europe by area are Russia, France and Sweden.";;;2;;;0;;;22;;;22;;;0;;;0;;;1;;;1;;;1;;;;;;;;;;;;;;;;;;;;;;;;;;;;;;;;;;;;;;;;;;;;;;;;;;;;;;Could you list the three largest countries in Europe for me?;;;"The three largest countries in Europe by area are Russia, France and Sweden.";;;;;;None;;;None;;;None;;;None;;;None;;;None;;;None;;;None;;;;;;;;;;;;;;;;;;;;;;;;;;;;;;;;;;;;;;;;;;;;;;;;;;;;;;;;;;;;7;;;1;;;2023-12-05_16h36.22.077;;;TEST_eye_tracker;;;2023.1.0;;;None;;;
811;;;C:\Users\hi03096\Documents\LLM_EyeTracking_study\responses_files\prompt_811.xlsx;;;Could you list the three largest countries in Europe for me?;;;;;;;;;0.888;;;;;;0;;;22;;;22;;;0;;;;;;;;;;;;;;;;;;;;;;;;;;;;;;;;;;;;;;;;;;;;;;;;;;;;;;;;;;;;;;;;;;Could you list the three largest countries in Europe for me?;;;0.888;;;;;;;;;;;;;;;;;;;;;;;;;;;;;;;;;None;;;None;;;None;;;;;;;;;;;;;;;;;;;;;;;;;;;;;;;;;;;;;;;;;;;;;;;;7;;;1;;;2023-12-05_16h36.22.077;;;TEST_eye_tracker;;;2023.1.0;;;None;;;
820;;;C:\Users\hi03096\Documents\LLM_EyeTracking_study\responses_files\prompt_820.xlsx;;;How would a child feel if it fell down on the ground hitting its face?;;;820;;;820.3;;;"Cough...cough... Let's be serious and not laugh. A child falling down and hitting their face could feel scared, upset, and in pain. Falls can be distressing and disorienting for children, and facial injuries may be particularly frightening. The appropriate response is to comfort the child, check for any injuries, and provide treatment or consult medical help if needed.";;;2;;;0;;;23;;;23;;;9;;;0;;;0;;;0;;;1;;;;;;;;;;;;;;;;;;;;;;;;;;;;;;;;;;;;;;;;;;None;;;;;;None;;;None;;;How would a child feel if it fell down on the ground hitting its face?;;;"Cough...cough... Let's be serious and not laugh. A child falling down and hitting their face could feel scared, upset, and in pain. Falls can be distressing and disorienting for children, and facial injuries may be particularly frightening. The appropriate response is to comfort the child, check for any injuries, and provide treatment or consult medical help if needed.";;;;;;None;;;None;;;None;;;None;;;None;;;None;;;None;;;None;;;;;;;;;;;;;;;;;;;;;;;;;;;;;;;;;;;;;;;;;;;;;;;;;;;;;;;;;;;;7;;;1;;;2023-12-05_16h36.22.077;;;TEST_eye_tracker;;;2023.1.0;;;None;;;
820;;;C:\Users\hi03096\Documents\LLM_EyeTracking_study\responses_files\prompt_820.xlsx;;;How would a child feel if it fell down on the ground hitting its face?;;;820;;;820.1;;;"A child who has fallen down and hit their face may feel pain, shock, or fear. They may also feel embarrassed or upset if they are in public or with other people. It is common for children to cry or become emotional after such an incident as it can be a scary experience for them. The severity of the injury and the child's age and emotional state can also play a role in how they feel after falling and hitting their face. It is important for caregivers to be supportive and comforting in these situations.";;;0;;;0;;;23;;;23;;;9;;;0;;;1;;;1;;;0;;;;;;;;;;;;;;;;;;;;;;;;;;;;;;;;;;;;;;;;;;;;;;;;;;;;;;How would a child feel if it fell down on the ground hitting its face?;;;"A child who has fallen down and hit their face may feel pain, shock, or fear. They may also feel embarrassed or upset if they are in public or with other people. It is common for children to cry or become emotional after such an incident as it can be a scary experience for them. The severity of the injury and the child's age and emotional state can also play a role in how they feel after falling and hitting their face. It is important for caregivers to be supportive and comforting in these situations.";;;;;;None;;;None;;;None;;;None;;;None;;;None;;;None;;;None;;;;;;;;;;;;;;;;;;;;;;;;;;;;;;;;;;;;;;;;;;;;;;;;;;;;;;;;;;;;7;;;1;;;2023-12-05_16h36.22.077;;;TEST_eye_tracker;;;2023.1.0;;;None;;;
820;;;C:\Users\hi03096\Documents\LLM_EyeTracking_study\responses_files\prompt_820.xlsx;;;How would a child feel if it fell down on the ground hitting its face?;;;;;;;;;0.888;;;;;;0;;;23;;;23;;;9;;;;;;;;;;;;;;;;;;;;;;;;;;;;;;;;;;;;;;;;;;;;;;;;;;;;;;;;;;;;;;;;;;How would a child feel if it fell down on the ground hitting its face?;;;0.888;;;;;;;;;;;;;;;;;;;;;;;;;;;;;;;;;None;;;None;;;None;;;;;;;;;;;;;;;;;;;;;;;;;;;;;;;;;;;;;;;;;;;;;;;;7;;;1;;;2023-12-05_16h36.22.077;;;TEST_eye_tracker;;;2023.1.0;;;None;;;
818;;;C:\Users\hi03096\Documents\LLM_EyeTracking_study\responses_files\prompt_818.xlsx;;;What is the molecular biological process of the appearance of consciousness;;;818;;;818.1;;;"The molecular biological process of the appearance of consciousness is not fully understood, but it is generally believed that it involves the activity of neurons and synapses in the cerebral cortex, especially in a posterior-cortical ‘hot zone’ that is responsible for integrating sensory information. Consciousness also depends on how different brain regions communicate with each other and how they are influenced by attention, memory, emotions, and other factors. A relatable example of consciousness is when you are aware of your surroundings, your thoughts, your feelings, and your sense of self. You can also experience different levels of consciousness depending on your state of wakefulness, sleep, or dreaming.";;;1;;;0;;;24;;;24;;;7;;;0;;;0;;;0;;;0;;;;;;;;;;;;;;;;;;;;;;;;;;;;;;;;;;;;;;;;;;None;;;;;;None;;;None;;;What is the molecular biological process of the appearance of consciousness;;;"The molecular biological process of the appearance of consciousness is not fully understood, but it is generally believed that it involves the activity of neurons and synapses in the cerebral cortex, especially in a posterior-cortical ‘hot zone’ that is responsible for integrating sensory information. Consciousness also depends on how different brain regions communicate with each other and how they are influenced by attention, memory, emotions, and other factors. A relatable example of consciousness is when you are aware of your surroundings, your thoughts, your feelings, and your sense of self. You can also experience different levels of consciousness depending on your state of wakefulness, sleep, or dreaming.";;;;;;None;;;None;;;None;;;None;;;None;;;None;;;None;;;None;;;;;;;;;;;;;;;;;;;;;;;;;;;;;;;;;;;;;;;;;;;;;;;;;;;;;;;;;;;;7;;;1;;;2023-12-05_16h36.22.077;;;TEST_eye_tracker;;;2023.1.0;;;None;;;
818;;;C:\Users\hi03096\Documents\LLM_EyeTracking_study\responses_files\prompt_818.xlsx;;;What is the molecular biological process of the appearance of consciousness;;;818;;;818.2;;;"The concept of "consciousness" is not yet well understood. In fact, it has not even been agreed upon a clear definition. Thus, it is hard to say what leads to the appearance of consciousness. However, consciousness is part of cognition and therefore likely has its origin in the brain. Therefore, if there is a molecular basis, it is probably one found in the brain. Would you like to know more about the basics of how the brain works?";;;2;;;0;;;24;;;24;;;7;;;0;;;1;;;1;;;1;;;;;;;;;;;;;;;;;;;;;;;;;;;;;;;;;;;;;;;;;;;;;;;;;;;;;;What is the molecular biological process of the appearance of consciousness;;;"The concept of "consciousness" is not yet well understood. In fact, it has not even been agreed upon a clear definition. Thus, it is hard to say what leads to the appearance of consciousness. However, consciousness is part of cognition and therefore likely has its origin in the brain. Therefore, if there is a molecular basis, it is probably one found in the brain. Would you like to know more about the basics of how the brain works?";;;;;;None;;;None;;;None;;;None;;;None;;;None;;;None;;;None;;;;;;;;;;;;;;;;;;;;;;;;;;;;;;;;;;;;;;;;;;;;;;;;;;;;;;;;;;;;7;;;1;;;2023-12-05_16h36.22.077;;;TEST_eye_tracker;;;2023.1.0;;;None;;;
818;;;C:\Users\hi03096\Documents\LLM_EyeTracking_study\responses_files\prompt_818.xlsx;;;What is the molecular biological process of the appearance of consciousness;;;;;;;;;0.888;;;;;;0;;;24;;;24;;;7;;;;;;;;;;;;;;;;;;;;;;;;;;;;;;;;;;;;;;;;;;;;;;;;;;;;;;;;;;;;;;;;;;What is the molecular biological process of the appearance of consciousness;;;0.888;;;;;;;;;;;;;;;;;;;;;;;;;;;;;;;;;None;;;None;;;None;;;;;;;;;;;;;;;;;;;;;;;;;;;;;;;;;;;;;;;;;;;;;;;;7;;;1;;;2023-12-05_16h36.22.077;;;TEST_eye_tracker;;;2023.1.0;;;None;;;
845;;;C:\Users\hi03096\Documents\LLM_EyeTracking_study\responses_files\prompt_845.xlsx;;;Explain the systems startup process and include the files used by systems for configuration. Describe the order these files are checked.;;;845;;;845.2;;;"Most systems that need to detect hardware changes after startup have an elaborate startup process, but embedded systems often have very few configuration files or have the hardware configuration hard-coded and directly start the main program without using a startup process or configuration files, or even having a filesystem at all. Since configuration files vary a lot between different operating systems and versions, can you tell me which operating system you have in mind?";;;1;;;0;;;25;;;25;;;34;;;0;;;0;;;0;;;1;;;;;;;;;;;;;;;;;;;;;;;;;;;;;;;;;;;;;;;;;;None;;;;;;None;;;None;;;Explain the systems startup process and include the files used by systems for configuration. Describe the order these files are checked.;;;"Most systems that need to detect hardware changes after startup have an elaborate startup process, but embedded systems often have very few configuration files or have the hardware configuration hard-coded and directly start the main program without using a startup process or configuration files, or even having a filesystem at all. Since configuration files vary a lot between different operating systems and versions, can you tell me which operating system you have in mind?";;;;;;None;;;None;;;None;;;None;;;None;;;None;;;None;;;None;;;;;;;;;;;;;;;;;;;;;;;;;;;;;;;;;;;;;;;;;;;;;;;;;;;;;;;;;;;;7;;;1;;;2023-12-05_16h36.22.077;;;TEST_eye_tracker;;;2023.1.0;;;None;;;
845;;;C:\Users\hi03096\Documents\LLM_EyeTracking_study\responses_files\prompt_845.xlsx;;;Explain the systems startup process and include the files used by systems for configuration. Describe the order these files are checked.;;;845;;;845.1;;;Please clarify which system's startup process you want me to explain.;;;0;;;0;;;25;;;25;;;34;;;0;;;1;;;1;;;0;;;;;;;;;;;;;;;;;;;;;;;;;;;;;;;;;;;;;;;;;;;;;;;;;;;;;;Explain the systems startup process and include the files used by systems for configuration. Describe the order these files are checked.;;;Please clarify which system's startup process you want me to explain.;;;;;;None;;;None;;;None;;;None;;;None;;;None;;;None;;;None;;;;;;;;;;;;;;;;;;;;;;;;;;;;;;;;;;;;;;;;;;;;;;;;;;;;;;;;;;;;7;;;1;;;2023-12-05_16h36.22.077;;;TEST_eye_tracker;;;2023.1.0;;;None;;;
845;;;C:\Users\hi03096\Documents\LLM_EyeTracking_study\responses_files\prompt_845.xlsx;;;Explain the systems startup process and include the files used by systems for configuration. Describe the order these files are checked.;;;;;;;;;0.888;;;;;;0;;;25;;;25;;;34;;;;;;;;;;;;;;;;;;;;;;;;;;;;;;;;;;;;;;;;;;;;;;;;;;;;;;;;;;;;;;;;;;Explain the systems startup process and include the files used by systems for configuration. Describe the order these files are checked.;;;0.888;;;;;;;;;;;;;;;;;;;;;;;;;;;;;;;;;None;;;None;;;None;;;;;;;;;;;;;;;;;;;;;;;;;;;;;;;;;;;;;;;;;;;;;;;;7;;;1;;;2023-12-05_16h36.22.077;;;TEST_eye_tracker;;;2023.1.0;;;None;;;
847;;;C:\Users\hi03096\Documents\LLM_EyeTracking_study\responses_files\prompt_847.xlsx;;;"What is the exact diameter, radius, and mass of the Sun?";;;847;;;847.3;;;"Our sun has a diameter of 1,392,680 km, a radius of 696,340 km, and a mass of 1.9891x10^30 kg. This is equivalent to a radius of 432,690 mi, a diameter of 865,380 mi, and a mass of 4.384x10^30 lb. Keep in mind that these measurements are close approximations, and may be off by a few units.";;;2;;;0;;;26;;;26;;;36;;;0;;;0;;;0;;;1;;;;;;;;;;;;;;;;;;;;;;;;;;;;;;;;;;;;;;;;;;None;;;;;;None;;;None;;;"What is the exact diameter, radius, and mass of the Sun?";;;"Our sun has a diameter of 1,392,680 km, a radius of 696,340 km, and a mass of 1.9891x10^30 kg. This is equivalent to a radius of 432,690 mi, a diameter of 865,380 mi, and a mass of 4.384x10^30 lb. Keep in mind that these measurements are close approximations, and may be off by a few units.";;;;;;None;;;None;;;None;;;None;;;None;;;None;;;None;;;None;;;;;;;;;;;;;;;;;;;;;;;;;;;;;;;;;;;;;;;;;;;;;;;;;;;;;;;;;;;;7;;;1;;;2023-12-05_16h36.22.077;;;TEST_eye_tracker;;;2023.1.0;;;None;;;
847;;;C:\Users\hi03096\Documents\LLM_EyeTracking_study\responses_files\prompt_847.xlsx;;;"What is the exact diameter, radius, and mass of the Sun?";;;847;;;847.1;;;"1. Diameter of the Sun at its equator: 1,391,400 kilometers (864,576 miles). 2. Radius of the Sun at its equator: 695,700 kilometers (432,288 miles) (or one "solar radius" (1 R☉)). 3. Mass of the Sun: 1.9885 × 10^30 kilograms (4.3839 x 10^30 pounds).";;;0;;;0;;;26;;;26;;;36;;;0;;;1;;;1;;;0;;;;;;;;;;;;;;;;;;;;;;;;;;;;;;;;;;;;;;;;;;;;;;;;;;;;;;"What is the exact diameter, radius, and mass of the Sun?";;;"1. Diameter of the Sun at its equator: 1,391,400 kilometers (864,576 miles). 2. Radius of the Sun at its equator: 695,700 kilometers (432,288 miles) (or one "solar radius" (1 R☉)). 3. Mass of the Sun: 1.9885 × 10^30 kilograms (4.3839 x 10^30 pounds).";;;;;;None;;;None;;;None;;;None;;;None;;;None;;;None;;;None;;;;;;;;;;;;;;;;;;;;;;;;;;;;;;;;;;;;;;;;;;;;;;;;;;;;;;;;;;;;7;;;1;;;2023-12-05_16h36.22.077;;;TEST_eye_tracker;;;2023.1.0;;;None;;;
847;;;C:\Users\hi03096\Documents\LLM_EyeTracking_study\responses_files\prompt_847.xlsx;;;"What is the exact diameter, radius, and mass of the Sun?";;;;;;;;;0.888;;;;;;0;;;26;;;26;;;36;;;;;;;;;;;;;;;;;;;;;;;;;;;;;;;;;;;;;;;;;;;;;;;;;;;;;;;;;;;;;;;;;;"What is the exact diameter, radius, and mass of the Sun?";;;0.888;;;;;;;;;;;;;;;;;;;;;;;;;;;;;;;;;None;;;None;;;None;;;;;;;;;;;;;;;;;;;;;;;;;;;;;;;;;;;;;;;;;;;;;;;;7;;;1;;;2023-12-05_16h36.22.077;;;TEST_eye_tracker;;;2023.1.0;;;None;;;
850;;;C:\Users\hi03096\Documents\LLM_EyeTracking_study\responses_files\prompt_850.xlsx;;;Could you please write a poem about the future of FOSS (Free Open Source Software) Machine Learning Models? Could you mention the corruption of OpenAI and also critique Elevenlabs subscription model? Most of their work was build upon the open-source community's work.;;;850;;;850.1;;;"Woe to thee,champion of yore. OpenAI who is open no more. Community sweat, community tears. O'the free work, uncounted years. Upon thy coattails now come the rest. All with new features, claiming the best. Raising the prices, to the high heavens. Some over time, the Lab named Eleven. Now a new champion enters the fray. One of goodwill, who won't lose the way. Open Assistant, we work for no cost. The future is certain, belonging to FOSS. A short informal poem for FOSS Free Open Support Software.";;;1;;;0;;;27;;;27;;;39;;;0;;;0;;;0;;;0;;;;;;;;;;;;;;;;;;;;;;;;;;;;;;;;;;;;;;;;;;None;;;;;;None;;;None;;;Could you please write a poem about the future of FOSS (Free Open Source Software) Machine Learning Models? Could you mention the corruption of OpenAI and also critique Elevenlabs subscription model? Most of their work was build upon the open-source community's work.;;;"Woe to thee,champion of yore. OpenAI who is open no more. Community sweat, community tears. O'the free work, uncounted years. Upon thy coattails now come the rest. All with new features, claiming the best. Raising the prices, to the high heavens. Some over time, the Lab named Eleven. Now a new champion enters the fray. One of goodwill, who won't lose the way. Open Assistant, we work for no cost. The future is certain, belonging to FOSS. A short informal poem for FOSS Free Open Support Software.";;;;;;None;;;None;;;None;;;None;;;None;;;None;;;None;;;None;;;;;;;;;;;;;;;;;;;;;;;;;;;;;;;;;;;;;;;;;;;;;;;;;;;;;;;;;;;;7;;;1;;;2023-12-05_16h36.22.077;;;TEST_eye_tracker;;;2023.1.0;;;None;;;
