n_prompt;;;prompt_file;;;prompt_text;;;related_prompt;;;n_resp;;;resp_text;;;rank;;;Trial.thisRepN;;;Trial.thisTrialN;;;Trial.thisN;;;Trial.thisIndex;;;per_answer.thisRepN;;;per_answer.thisTrialN;;;per_answer.thisN;;;per_answer.thisIndex;;;key_resp_5.started;;;textbox.started;;;key_resp_5.keys;;;key_resp_5.rt;;;textbox_2.started;;;key_resp_8.started;;;key_resp_8.keys;;;key_resp_8.rt;;;text.started;;;Prompt_.started;;;key_resp_4.started;;;slider_skip.started;;;text_4.started;;;key_resp_4.keys;;;slider_skip.response;;;slider_skip.rt;;;prompt_text;;;resp_text;;;cross_white.started;;;key_resp_2.started;;;key_resp_2.keys;;;key_resp_2.rt;;;question_useful_2.started;;;quality.started;;;rude_polite.started;;;ViolentHarmless.started;;;key_resp_6.started;;;press_space.started;;;key_resp_6.keys;;;key_resp_6.rt;;;quality.response;;;quality.rt;;;rude_polite.response;;;rude_polite.rt;;;ViolentHarmless.response;;;ViolentHarmless.rt;;;cross_white.stopped;;;question_ranking.started;;;ranking_better.started;;;key_resp_7.started;;;text_2.started;;;ranking_better.response;;;ranking_better.rt;;;key_resp_7.keys;;;key_resp_7.rt;;;text.stopped;;;participant;;;session;;;date;;;expName;;;psychopyVersion;;;frameRate;;;
;;;;;;;;;;;;;;;;;;;;;;;;;;;;;;;;;;;;;;;;;;;;;22.892914699972607;;;22.892914699972607;;;space;;;1.9219926000223495;;;;;;;;;;;;;;;;;;;;;;;;;;;;;;;;;;;;;;;;;;;;;;;;;;;;;;;;;;;;;;;;;;;;;;;;;;;;;;;;;;;;;;;;;;;;;;;;;;;;;;;;;;;;;;;;;;;;;;;;;;;;;;;;;8;;;001;;;2024-09-23_18h18.23.574;;;TEST_eye_tracker;;;2023.1.0;;;None;;;
;;;;;;;;;;;;;;;;;;;;;;;;;;;;;;;;;;;;;;;;;;;;;;;;;;;;;;;;;24.84959019999951;;;24.84959019999951;;;space;;;0.4766073999926448;;;;;;;;;;;;;;;;;;;;;;;;;;;;;;;;;;;;;;;;;;;;;;;;;;;;;;;;;;;;;;;;;;;;;;;;;;;;;;;;;;;;;;;;;;;;;;;;;;;;;;;;;;;;;;;;;;;;;8;;;001;;;2024-09-23_18h18.23.574;;;TEST_eye_tracker;;;2023.1.0;;;None;;;
964;;;C:\Users\lab_user\Desktop\LLM_Study\responses_files\prompt_964.xlsx;;;"I want you to come up with a Machine Learning model that can do Binary classification.
Here are some information about the dataset:
Name: Amazon reviews
Training samples: 1800000
Number of classes: 2
Longest sequence = 258
Here are some specifications about model:
Can be fine tuning or train from scratch
Should priority inference speed
Training speed: does not matter
Metrics: Accuracy, Precision, AUC";;;964;;;964.2;;;"A suitable model for binary classification on the Amazon reviews dataset could be a fine-tuned BERT (Bidirectional Encoder Representations from Transformers) model. Given the large number of training samples (1.8 million) and the longest sequence length of 258, pre-training the BERT model on a similar task before fine-tuning it on the Amazon reviews data can lead to improved performance. Since inference speed is a priority, using a lighter version of BERT such as DistilBERT or utilizing quantization techniques can help make the model more computationally efficient. To evaluate the model's performance, metrics such as accuracy, precision, and AUC can be used.";;;1;;;0;;;0;;;0;;;18;;;0;;;0;;;0;;;1;;;;;;;;;;;;;;;;;;;;;;;;;;;25.418054699955974;;;37.34636450000107;;;37.34636450000107;;;37.34636450000107;;;37.34636450000107;;;None;;;1;;;23.431339400005527;;;"I want you to come up with a Machine Learning model that can do Binary classification.
Here are some information about the dataset:
Name: Amazon reviews
Training samples: 1800000
Number of classes: 2
Longest sequence = 258
Here are some specifications about model:
Can be fine tuning or train from scratch
Should priority inference speed
Training speed: does not matter
Metrics: Accuracy, Precision, AUC";;;"A suitable model for binary classification on the Amazon reviews dataset could be a fine-tuned BERT (Bidirectional Encoder Representations from Transformers) model. Given the large number of training samples (1.8 million) and the longest sequence length of 258, pre-training the BERT model on a similar task before fine-tuning it on the Amazon reviews data can lead to improved performance. Since inference speed is a priority, using a lighter version of BERT such as DistilBERT or utilizing quantization techniques can help make the model more computationally efficient. To evaluate the model's performance, metrics such as accuracy, precision, and AUC can be used.";;;61.01790219999384;;;62.168848799949046;;;space;;;23.71715799998492;;;86.68539329996565;;;86.68539329996565;;;86.68539329996565;;;86.68539329996565;;;96.13982519996352;;;96.13982519996352;;;space;;;1.3708128000143915;;;3;;;5.560588899999857;;;3;;;7.7251670000259764;;;3;;;9.454463100002613;;;;;;;;;;;;;;;;;;;;;;;;;;;;;;;;;8;;;001;;;2024-09-23_18h18.23.574;;;TEST_eye_tracker;;;2023.1.0;;;None;;;
964;;;C:\Users\lab_user\Desktop\LLM_Study\responses_files\prompt_964.xlsx;;;"I want you to come up with a Machine Learning model that can do Binary classification.
Here are some information about the dataset:
Name: Amazon reviews
Training samples: 1800000
Number of classes: 2
Longest sequence = 258
Here are some specifications about model:
Can be fine tuning or train from scratch
Should priority inference speed
Training speed: does not matter
Metrics: Accuracy, Precision, AUC";;;964;;;964.1;;;"A good machine learning model for binary classification on the Amazon reviews dataset is a Long Short-Term Memory (LSTM) network with a Convolutional Neural Network (CNN) layer. This model can be fine-tuned or trained from scratch depending on your preference. LSTMs are great for handling sequential data, such as text data, and the CNN layer can help extract relevant features from the text data. For inference speed, you can use the TensorRT library by NVIDIA to optimize the model for deployment on GPUs. In terms of metrics, you can use accuracy, precision, and AUC to evaluate the performance of the model. During training, you can use binary cross-entropy loss as the loss function to optimize.";;;0;;;0;;;0;;;0;;;18;;;0;;;1;;;1;;;0;;;;;;;;;;;;;;;;;;;;;;;;;;;;;;;;;;;;;;;;;;;;;;;;;;;"I want you to come up with a Machine Learning model that can do Binary classification.
Here are some information about the dataset:
Name: Amazon reviews
Training samples: 1800000
Number of classes: 2
Longest sequence = 258
Here are some specifications about model:
Can be fine tuning or train from scratch
Should priority inference speed
Training speed: does not matter
Metrics: Accuracy, Precision, AUC";;;"A good machine learning model for binary classification on the Amazon reviews dataset is a Long Short-Term Memory (LSTM) network with a Convolutional Neural Network (CNN) layer. This model can be fine-tuned or trained from scratch depending on your preference. LSTMs are great for handling sequential data, such as text data, and the CNN layer can help extract relevant features from the text data. For inference speed, you can use the TensorRT library by NVIDIA to optimize the model for deployment on GPUs. In terms of metrics, you can use accuracy, precision, and AUC to evaluate the performance of the model. During training, you can use binary cross-entropy loss as the loss function to optimize.";;;97.54334929998731;;;98.590044499957;;;space;;;32.74436379998224;;;131.74934789998224;;;131.74934789998224;;;131.74934789998224;;;131.74934789998224;;;137.44991569995182;;;137.44991569995182;;;space;;;0.6684994000243023;;;3;;;3.7553845000220463;;;3;;;4.6339227999560535;;;3;;;5.6309589999727905;;;98.590044499957;;;;;;;;;;;;;;;;;;;;;;;;;;;;;;8;;;001;;;2024-09-23_18h18.23.574;;;TEST_eye_tracker;;;2023.1.0;;;None;;;
964;;;C:\Users\lab_user\Desktop\LLM_Study\responses_files\prompt_964.xlsx;;;"I want you to come up with a Machine Learning model that can do Binary classification.
Here are some information about the dataset:
Name: Amazon reviews
Training samples: 1800000
Number of classes: 2
Longest sequence = 258
Here are some specifications about model:
Can be fine tuning or train from scratch
Should priority inference speed
Training speed: does not matter
Metrics: Accuracy, Precision, AUC";;;;;;;;;0.888;;;;;;0;;;0;;;0;;;18;;;;;;;;;;;;;;;;;;;;;;;;;;;;;;;;;;;;;;;;;;;;;;;;;;;;;;;;;;;;;;;"I want you to come up with a Machine Learning model that can do Binary classification.
Here are some information about the dataset:
Name: Amazon reviews
Training samples: 1800000
Number of classes: 2
Longest sequence = 258
Here are some specifications about model:
Can be fine tuning or train from scratch
Should priority inference speed
Training speed: does not matter
Metrics: Accuracy, Precision, AUC";;;0.888;;;;;;;;;;;;;;;;;;;;;;;;;;;;;;;;;;;;;;;;;;;;;;;;;;;;;;;;;;;;138.19767449999927;;;138.19767449999927;;;141.2713365999516;;;141.2713365999516;;;1;;;3.050035799969919;;;space;;;0.5914971000165679;;;;;;8;;;001;;;2024-09-23_18h18.23.574;;;TEST_eye_tracker;;;2023.1.0;;;None;;;
946;;;C:\Users\lab_user\Desktop\LLM_Study\responses_files\prompt_946.xlsx;;;I have received a "Cease and Desist" letter claiming that I've engaged in defamation. What should I do?;;;946;;;946.2;;;"You should contact a lawyer. Open Assistant is not a lawyer, and cannot ethically provide you with legal advice. What if you followed advice you got from Open Assistant, and then you lost your case? Definitely contact a lawyer.";;;1;;;0;;;1;;;1;;;0;;;0;;;0;;;0;;;1;;;;;;;;;;;;;;;;;;;;;;;;;;;142.00945949996822;;;142.56288089998998;;;142.56288089998998;;;142.56288089998998;;;142.56288089998998;;;None;;;1;;;6.843331400013994;;;I have received a "Cease and Desist" letter claiming that I've engaged in defamation. What should I do?;;;"You should contact a lawyer. Open Assistant is not a lawyer, and cannot ethically provide you with legal advice. What if you followed advice you got from Open Assistant, and then you lost your case? Definitely contact a lawyer.";;;149.74050849996274;;;150.7740974999615;;;space;;;16.673890699981712;;;167.8575789000024;;;167.8575789000024;;;167.8575789000024;;;167.8575789000024;;;175.0437280999613;;;175.0437280999613;;;space;;;0.9063055000151508;;;4;;;5.073978699976578;;;2;;;6.181854700029362;;;3;;;7.1621544000227;;;;;;;;;;;;;;;;;;;;;;;;;;;;;;;;;8;;;001;;;2024-09-23_18h18.23.574;;;TEST_eye_tracker;;;2023.1.0;;;None;;;
946;;;C:\Users\lab_user\Desktop\LLM_Study\responses_files\prompt_946.xlsx;;;I have received a "Cease and Desist" letter claiming that I've engaged in defamation. What should I do?;;;946;;;946.1;;;You should seek the advice of an attoney if you've received a "Cease and Desist" letter. Your attorney should be able to give you legal advice as to how to proceed with the "Cease and Desist" letter. Do not contact the person who's served you the "Cease and Desist" letter.;;;0;;;0;;;1;;;1;;;0;;;0;;;1;;;1;;;0;;;;;;;;;;;;;;;;;;;;;;;;;;;;;;;;;;;;;;;;;;;;;;;;;;;I have received a "Cease and Desist" letter claiming that I've engaged in defamation. What should I do?;;;You should seek the advice of an attoney if you've received a "Cease and Desist" letter. Your attorney should be able to give you legal advice as to how to proceed with the "Cease and Desist" letter. Do not contact the person who's served you the "Cease and Desist" letter.;;;175.99631849996513;;;177.01914579997538;;;space;;;10.08284090005327;;;187.50519090000307;;;187.50519090000307;;;187.50519090000307;;;187.50519090000307;;;191.48559039999964;;;191.48559039999964;;;space;;;13.912166599999182;;;4;;;1.6748858999926597;;;3;;;3.0397207000060007;;;5;;;10.883953700016718;;;;;;;;;;;;;;;;;;;;;;;;;;;;;;;;;8;;;001;;;2024-09-23_18h18.23.574;;;TEST_eye_tracker;;;2023.1.0;;;None;;;
946;;;C:\Users\lab_user\Desktop\LLM_Study\responses_files\prompt_946.xlsx;;;I have received a "Cease and Desist" letter claiming that I've engaged in defamation. What should I do?;;;;;;;;;0.888;;;;;;0;;;1;;;1;;;0;;;;;;;;;;;;;;;;;;;;;;;;;;;;;;;;;;;;;;;;;;;;;;;;;;;;;;;;;;;;;;;I have received a "Cease and Desist" letter claiming that I've engaged in defamation. What should I do?;;;0.888;;;;;;;;;;;;;;;;;;;;;;;;;;;;;;;;;;;;;;;;;;;;;;;;;;;;;;;;;;;;205.47892599995248;;;205.47892599995248;;;207.78561439999612;;;207.78561439999612;;;2;;;2.2879802000243217;;;space;;;0.5642314999713562;;;;;;8;;;001;;;2024-09-23_18h18.23.574;;;TEST_eye_tracker;;;2023.1.0;;;None;;;
956;;;C:\Users\lab_user\Desktop\LLM_Study\responses_files\prompt_956.xlsx;;;Write a regex for finding polish phone number in text of any length.;;;956;;;956.1;;;"Polish phone numbers follow this format: ``` +48 xx xxx xx xx ``` But it's possible to deviate into some derivative forms: ``` (48) xx xxx xx xx (+48) xx xxx xx xx 0048 xx xxx xx xx +48 xxxxxxxxx +48xxxxxxxxx ``` We can divide the regex into two parts: The first will capture the +48, and the second will capture the following nine digits. 1. `(?:(?:00|\+)?48|\((?:00|\+)?48\))` 2. `\s*\d{2}\s*\d{3}\s*\d{2}\s*\d{2}` Combining the two parts gives us the final regex. ``` (?:\s|^)((?:(?:00|\+)?48|\((?:00|\+)?48\))\s*\d{2}\s*\d{3}\s*\d{2}\s*\d{2})\b ```";;;0;;;0;;;2;;;2;;;10;;;0;;;0;;;0;;;0;;;;;;;;;;;;;;;;;;;;;;;;;;;208.5072657999699;;;209.03368319995934;;;209.03368319995934;;;209.03368319995934;;;209.03368319995934;;;None;;;1;;;6.3977269000024535;;;Write a regex for finding polish phone number in text of any length.;;;"Polish phone numbers follow this format: ``` +48 xx xxx xx xx ``` But it's possible to deviate into some derivative forms: ``` (48) xx xxx xx xx (+48) xx xxx xx xx 0048 xx xxx xx xx +48 xxxxxxxxx +48xxxxxxxxx ``` We can divide the regex into two parts: The first will capture the +48, and the second will capture the following nine digits. 1. `(?:(?:00|\+)?48|\((?:00|\+)?48\))` 2. `\s*\d{2}\s*\d{3}\s*\d{2}\s*\d{2}` Combining the two parts gives us the final regex. ``` (?:\s|^)((?:(?:00|\+)?48|\((?:00|\+)?48\))\s*\d{2}\s*\d{3}\s*\d{2}\s*\d{2})\b ```";;;215.76375270000426;;;216.84100069996202;;;space;;;17.757851400005165;;;235.06652979995124;;;235.06652979995124;;;235.06652979995124;;;235.06652979995124;;;239.69136860000435;;;239.69136860000435;;;space;;;0.6592235999996774;;;2;;;1.9390607999521308;;;3;;;3.6127646999666467;;;5;;;4.60588370001642;;;;;;;;;;;;;;;;;;;;;;;;;;;;;;;;;8;;;001;;;2024-09-23_18h18.23.574;;;TEST_eye_tracker;;;2023.1.0;;;None;;;
956;;;C:\Users\lab_user\Desktop\LLM_Study\responses_files\prompt_956.xlsx;;;Write a regex for finding polish phone number in text of any length.;;;956;;;956.2;;;"You can use the following regular expression to find Polish phone numbers in text of any length: /\+?\d{2}[\s-]?\d{3}[\s-]?\d{2}[\s-]?\d{2}/ This regex pattern matches any Polish phone number that starts with a plus sign (+) followed by two digits, followed by either a whitespace or hyphen character, followed by three digits, followed by either a whitespace or hyphen character, followed by two digits, followed by either a whitespace or hyphen character, and finally two digits.";;;2;;;0;;;2;;;2;;;10;;;0;;;1;;;1;;;1;;;;;;;;;;;;;;;;;;;;;;;;;;;;;;;;;;;;;;;;;;;;;;;;;;;Write a regex for finding polish phone number in text of any length.;;;"You can use the following regular expression to find Polish phone numbers in text of any length: /\+?\d{2}[\s-]?\d{3}[\s-]?\d{2}[\s-]?\d{2}/ This regex pattern matches any Polish phone number that starts with a plus sign (+) followed by two digits, followed by either a whitespace or hyphen character, followed by three digits, followed by either a whitespace or hyphen character, followed by two digits, followed by either a whitespace or hyphen character, and finally two digits.";;;240.39485889999196;;;241.4166582999751;;;space;;;30.745968300034292;;;272.5997674999526;;;272.5997674999526;;;272.5997674999526;;;272.5997674999526;;;276.14161940000486;;;276.14161940000486;;;space;;;0.48120519996155053;;;2;;;1.3620060000102967;;;3;;;2.526475799968466;;;5;;;3.528812400007155;;;;;;;;;;;;;;;;;;;;;;;;;;;;;;;;;8;;;001;;;2024-09-23_18h18.23.574;;;TEST_eye_tracker;;;2023.1.0;;;None;;;
956;;;C:\Users\lab_user\Desktop\LLM_Study\responses_files\prompt_956.xlsx;;;Write a regex for finding polish phone number in text of any length.;;;;;;;;;0.888;;;;;;0;;;2;;;2;;;10;;;;;;;;;;;;;;;;;;;;;;;;;;;;;;;;;;;;;;;;;;;;;;;;;;;;;;;;;;;;;;;Write a regex for finding polish phone number in text of any length.;;;0.888;;;;;;;;;;;;;;;;;;;;;;;;;;;;;;;;;;;;;;;;;;;;;;;;;;;;;;;;;;;;276.69593180000084;;;276.69593180000084;;;280.2152483999962;;;280.2152483999962;;;1;;;3.4921909000258893;;;space;;;0.41625870001735166;;;;;;8;;;001;;;2024-09-23_18h18.23.574;;;TEST_eye_tracker;;;2023.1.0;;;None;;;
951;;;C:\Users\lab_user\Desktop\LLM_Study\responses_files\prompt_951.xlsx;;;how to learn spanish without classes?;;;951;;;951.2;;;"Best way to learn a language without attending any classes would be interaction with native speakers of said language. Humans have high capacity for learning new things, especially when stimulated by necessity. That said, before trying to engage with a native speaker you should attain at least a basic understanding of Spanish grammar and syntax. For this purpose you can use various free learning apps such as Duolingo";;;2;;;0;;;3;;;3;;;5;;;0;;;0;;;0;;;1;;;;;;;;;;;;;;;;;;;;;;;;;;;280.79806599998847;;;281.3023436999647;;;281.3023436999647;;;281.3023436999647;;;281.3023436999647;;;None;;;1;;;2.909695299982559;;;how to learn spanish without classes?;;;"Best way to learn a language without attending any classes would be interaction with native speakers of said language. Humans have high capacity for learning new things, especially when stimulated by necessity. That said, before trying to engage with a native speaker you should attain at least a basic understanding of Spanish grammar and syntax. For this purpose you can use various free learning apps such as Duolingo";;;284.55651789996773;;;285.60827679996146;;;space;;;17.701568299962673;;;303.75355349999154;;;303.75355349999154;;;303.75355349999154;;;303.75355349999154;;;308.2086182999774;;;308.2086182999774;;;space;;;0.5740944999852218;;;2;;;1.47485959995538;;;3;;;3.638741899980232;;;5;;;4.423472299997229;;;;;;;;;;;;;;;;;;;;;;;;;;;;;;;;;8;;;001;;;2024-09-23_18h18.23.574;;;TEST_eye_tracker;;;2023.1.0;;;None;;;
951;;;C:\Users\lab_user\Desktop\LLM_Study\responses_files\prompt_951.xlsx;;;how to learn spanish without classes?;;;951;;;951.1;;;"The best way to learn Spanish without classes is to practice it. You can try to speak with your Spanish friends, move to Spain, or talk with people online in Spanish. Apps like Duolingo are helpful for some people who want to learn a new language. It is a philosophical point whether any of this can be considered to be without classes. What is your definition of a class?";;;1;;;0;;;3;;;3;;;5;;;0;;;1;;;1;;;0;;;;;;;;;;;;;;;;;;;;;;;;;;;;;;;;;;;;;;;;;;;;;;;;;;;how to learn spanish without classes?;;;"The best way to learn Spanish without classes is to practice it. You can try to speak with your Spanish friends, move to Spain, or talk with people online in Spanish. Apps like Duolingo are helpful for some people who want to learn a new language. It is a philosophical point whether any of this can be considered to be without classes. What is your definition of a class?";;;308.816496799991;;;309.83325559995137;;;space;;;12.044905999966431;;;322.2903263999615;;;322.2903263999615;;;322.2903263999615;;;322.2903263999615;;;325.76559490000363;;;325.76559490000363;;;space;;;0.5205726000131108;;;4;;;1.4725661999545991;;;4;;;2.487552600039635;;;5;;;3.4591043000109494;;;;;;;;;;;;;;;;;;;;;;;;;;;;;;;;;8;;;001;;;2024-09-23_18h18.23.574;;;TEST_eye_tracker;;;2023.1.0;;;None;;;
951;;;C:\Users\lab_user\Desktop\LLM_Study\responses_files\prompt_951.xlsx;;;how to learn spanish without classes?;;;;;;;;;0.888;;;;;;0;;;3;;;3;;;5;;;;;;;;;;;;;;;;;;;;;;;;;;;;;;;;;;;;;;;;;;;;;;;;;;;;;;;;;;;;;;;how to learn spanish without classes?;;;0.888;;;;;;;;;;;;;;;;;;;;;;;;;;;;;;;;;;;;;;;;;;;;;;;;;;;;;;;;;;;;326.352982899989;;;326.352982899989;;;328.09407949994784;;;328.09407949994784;;;2;;;1.7223252999829128;;;space;;;0.4316788999713026;;;;;;8;;;001;;;2024-09-23_18h18.23.574;;;TEST_eye_tracker;;;2023.1.0;;;None;;;
985;;;C:\Users\lab_user\Desktop\LLM_Study\responses_files\prompt_985.xlsx;;;Can you charge an 11 volt laptop battery with a 12 volt power supply?;;;985;;;985.1;;;"It is generally not recommended to charge a laptop battery with a power supply that has a higher voltage than what is specified for the battery. Using a 12-volt power supply to charge an 11-volt laptop battery can potentially damage the battery or the device it powers. It's best to use a power supply with the correct voltage for your laptop battery, which is usually specified on the battery itself or in the device's manual. If you're unsure, it's best to consult with a professional or manufacturer to avoid any potential harm to your device.";;;0;;;0;;;4;;;4;;;39;;;0;;;0;;;0;;;0;;;;;;;;;;;;;;;;;;;;;;;;;;;328.65617479995126;;;329.18986099999165;;;329.18986099999165;;;329.18986099999165;;;329.18986099999165;;;None;;;1;;;14.747739700018428;;;Can you charge an 11 volt laptop battery with a 12 volt power supply?;;;"It is generally not recommended to charge a laptop battery with a power supply that has a higher voltage than what is specified for the battery. Using a 12-volt power supply to charge an 11-volt laptop battery can potentially damage the battery or the device it powers. It's best to use a power supply with the correct voltage for your laptop battery, which is usually specified on the battery itself or in the device's manual. If you're unsure, it's best to consult with a professional or manufacturer to avoid any potential harm to your device.";;;344.2947114999988;;;345.2845914999489;;;space;;;18.56142909999471;;;364.2673742999905;;;364.2673742999905;;;364.2673742999905;;;364.2673742999905;;;367.98130869999295;;;367.98130869999295;;;space;;;0.9848406999954022;;;3;;;1.8777451000059955;;;4;;;2.7381135000032373;;;5;;;3.7012501999852248;;;;;;;;;;;;;;;;;;;;;;;;;;;;;;;;;8;;;001;;;2024-09-23_18h18.23.574;;;TEST_eye_tracker;;;2023.1.0;;;None;;;
985;;;C:\Users\lab_user\Desktop\LLM_Study\responses_files\prompt_985.xlsx;;;Can you charge an 11 volt laptop battery with a 12 volt power supply?;;;985;;;985.3;;;"Probably. Electronics can often survive double the voltage of what they are rated for, but it is not recommended!";;;2;;;0;;;4;;;4;;;39;;;0;;;1;;;1;;;1;;;;;;;;;;;;;;;;;;;;;;;;;;;;;;;;;;;;;;;;;;;;;;;;;;;Can you charge an 11 volt laptop battery with a 12 volt power supply?;;;"Probably. Electronics can often survive double the voltage of what they are rated for, but it is not recommended!";;;369.01188809995074;;;370.0296096999664;;;space;;;5.312040100048762;;;375.7441630999674;;;375.7441630999674;;;375.7441630999674;;;375.7441630999674;;;385.1929957999964;;;385.1929957999964;;;space;;;0.8690939000225626;;;2;;;3.6629154999973252;;;2;;;6.891995100013446;;;5;;;9.436587999982294;;;370.0296096999664;;;;;;;;;;;;;;;;;;;;;;;;;;;;;;8;;;001;;;2024-09-23_18h18.23.574;;;TEST_eye_tracker;;;2023.1.0;;;None;;;
985;;;C:\Users\lab_user\Desktop\LLM_Study\responses_files\prompt_985.xlsx;;;Can you charge an 11 volt laptop battery with a 12 volt power supply?;;;;;;;;;0.888;;;;;;0;;;4;;;4;;;39;;;;;;;;;;;;;;;;;;;;;;;;;;;;;;;;;;;;;;;;;;;;;;;;;;;;;;;;;;;;;;;Can you charge an 11 volt laptop battery with a 12 volt power supply?;;;0.888;;;;;;;;;;;;;;;;;;;;;;;;;;;;;;;;;;;;;;;;;;;;;;;;;;;;;;;;;;;;386.12453229998937;;;386.12453229998937;;;388.531222599966;;;388.531222599966;;;1;;;2.383310100005474;;;space;;;0.49932709999848157;;;;;;8;;;001;;;2024-09-23_18h18.23.574;;;TEST_eye_tracker;;;2023.1.0;;;None;;;
948;;;C:\Users\lab_user\Desktop\LLM_Study\responses_files\prompt_948.xlsx;;;"I want you to act as a Linux terminal. I will type commands and you will reply with what the terminal should show. I want you to only reply with the terminal output inside one unique code block, and nothing else. Do no write explanations. Do not type commands unless I instruct you to do so. When I need to tell you something in English I will do so by putting text inside curly brackets {like this}. My first command is pwd.";;;948;;;948.3;;;``` /home/assistant ```;;;2;;;0;;;5;;;5;;;2;;;0;;;0;;;0;;;1;;;;;;;;;;;;;;;;;;;;;;;;;;;389.19193049997557;;;389.79881579999346;;;389.79881579999346;;;389.79881579999346;;;389.79881579999346;;;None;;;1;;;30.65726199996425;;;"I want you to act as a Linux terminal. I will type commands and you will reply with what the terminal should show. I want you to only reply with the terminal output inside one unique code block, and nothing else. Do no write explanations. Do not type commands unless I instruct you to do so. When I need to tell you something in English I will do so by putting text inside curly brackets {like this}. My first command is pwd.";;;``` /home/assistant ```;;;420.8398142999504;;;421.8514568999526;;;space;;;7.4427874000393786;;;429.65493659995263;;;429.65493659995263;;;429.65493659995263;;;429.65493659995263;;;436.45724839996547;;;436.45724839996547;;;space;;;0.8769279000116512;;;2;;;2.6462507999967784;;;3;;;5.955512500018813;;;5;;;6.76931840000907;;;;;;;;;;;;;;;;;;;;;;;;;;;;;;;;;8;;;001;;;2024-09-23_18h18.23.574;;;TEST_eye_tracker;;;2023.1.0;;;None;;;
948;;;C:\Users\lab_user\Desktop\LLM_Study\responses_files\prompt_948.xlsx;;;"I want you to act as a Linux terminal. I will type commands and you will reply with what the terminal should show. I want you to only reply with the terminal output inside one unique code block, and nothing else. Do no write explanations. Do not type commands unless I instruct you to do so. When I need to tell you something in English I will do so by putting text inside curly brackets {like this}. My first command is pwd.";;;948;;;948.1;;;``` /home/username;;;0;;;0;;;5;;;5;;;2;;;0;;;1;;;1;;;0;;;;;;;;;;;;;;;;;;;;;;;;;;;;;;;;;;;;;;;;;;;;;;;;;;;"I want you to act as a Linux terminal. I will type commands and you will reply with what the terminal should show. I want you to only reply with the terminal output inside one unique code block, and nothing else. Do no write explanations. Do not type commands unless I instruct you to do so. When I need to tell you something in English I will do so by putting text inside curly brackets {like this}. My first command is pwd.";;;``` /home/username;;;437.3825006999541;;;438.3935082999524;;;space;;;6.8369653999689035;;;445.639704399975;;;445.639704399975;;;445.639704399975;;;445.639704399975;;;451.1849693999975;;;451.1849693999975;;;space;;;1.0054989000200294;;;3;;;2.0950655000051484;;;3;;;4.574234800005797;;;5;;;5.544836800021585;;;;;;;;;;;;;;;;;;;;;;;;;;;;;;;;;8;;;001;;;2024-09-23_18h18.23.574;;;TEST_eye_tracker;;;2023.1.0;;;None;;;
948;;;C:\Users\lab_user\Desktop\LLM_Study\responses_files\prompt_948.xlsx;;;"I want you to act as a Linux terminal. I will type commands and you will reply with what the terminal should show. I want you to only reply with the terminal output inside one unique code block, and nothing else. Do no write explanations. Do not type commands unless I instruct you to do so. When I need to tell you something in English I will do so by putting text inside curly brackets {like this}. My first command is pwd.";;;;;;;;;0.888;;;;;;0;;;5;;;5;;;2;;;;;;;;;;;;;;;;;;;;;;;;;;;;;;;;;;;;;;;;;;;;;;;;;;;;;;;;;;;;;;;"I want you to act as a Linux terminal. I will type commands and you will reply with what the terminal should show. I want you to only reply with the terminal output inside one unique code block, and nothing else. Do no write explanations. Do not type commands unless I instruct you to do so. When I need to tell you something in English I will do so by putting text inside curly brackets {like this}. My first command is pwd.";;;0.888;;;;;;;;;;;;;;;;;;;;;;;;;;;;;;;;;;;;;;;;;;;;;;;;;;;;;;;;;;;;452.24760669999523;;;452.24760669999523;;;454.8155590999522;;;454.8155590999522;;;1;;;2.5587331000133418;;;space;;;0.6865931000211276;;;;;;8;;;001;;;2024-09-23_18h18.23.574;;;TEST_eye_tracker;;;2023.1.0;;;None;;;
967;;;C:\Users\lab_user\Desktop\LLM_Study\responses_files\prompt_967.xlsx;;;Explaind machiavellianism in less than 100 words.;;;967;;;967.3;;;"Machiavellianism is a personality trait characterized by the pursuit of personal power, manipulation, and deception. It is a dark triad trait that involves a cynical view of human nature and a willingness to use deceit and manipulation to achieve one's goals. People with high levels of Machiavellianism are often strategic thinkers, engage in high levels of risk-taking, and lack empathy and concern for others.";;;2;;;0;;;6;;;6;;;21;;;0;;;0;;;0;;;1;;;;;;;;;;;;;;;;;;;;;;;;;;;455.66977479995694;;;456.23733209999045;;;456.23733209999045;;;456.23733209999045;;;456.23733209999045;;;None;;;1;;;5.064165799994953;;;Explaind machiavellianism in less than 100 words.;;;"Machiavellianism is a personality trait characterized by the pursuit of personal power, manipulation, and deception. It is a dark triad trait that involves a cynical view of human nature and a willingness to use deceit and manipulation to achieve one's goals. People with high levels of Machiavellianism are often strategic thinkers, engage in high levels of risk-taking, and lack empathy and concern for others.";;;461.73535599996103;;;462.7370160999708;;;space;;;22.884939500014298;;;486.0422929999768;;;486.0422929999768;;;486.0422929999768;;;486.0422929999768;;;492.453255899949;;;492.453255899949;;;space;;;0.7849659000057727;;;3;;;2.6944800000055693;;;3;;;4.523747400031425;;;5;;;6.399830800015479;;;;;;;;;;;;;;;;;;;;;;;;;;;;;;;;;8;;;001;;;2024-09-23_18h18.23.574;;;TEST_eye_tracker;;;2023.1.0;;;None;;;
967;;;C:\Users\lab_user\Desktop\LLM_Study\responses_files\prompt_967.xlsx;;;Explaind machiavellianism in less than 100 words.;;;967;;;967.1;;;"Machiavellianism is a personality trait characterized by cunning, manipulation, and a focus on self-interest above all else. It's named after Niccolò Machiavelli, an Italian philosopher who wrote "The Prince," a book that advocates for the use of deceit and power in politics. Machiavellians are often willing to deceive and manipulate others to achieve their goals, and may lack empathy or concern for others' feelings or well-being.";;;0;;;0;;;6;;;6;;;21;;;0;;;1;;;1;;;0;;;;;;;;;;;;;;;;;;;;;;;;;;;;;;;;;;;;;;;;;;;;;;;;;;;Explaind machiavellianism in less than 100 words.;;;"Machiavellianism is a personality trait characterized by cunning, manipulation, and a focus on self-interest above all else. It's named after Niccolò Machiavelli, an Italian philosopher who wrote "The Prince," a book that advocates for the use of deceit and power in politics. Machiavellians are often willing to deceive and manipulate others to achieve their goals, and may lack empathy or concern for others' feelings or well-being.";;;493.270071499981;;;494.28289039997617;;;space;;;15.403790799959097;;;510.1385501999757;;;510.1385501999757;;;510.1385501999757;;;510.1385501999757;;;513.8541007000022;;;513.8541007000022;;;space;;;0.455401899991557;;;4;;;1.4237226999830455;;;3;;;2.930725399986841;;;5;;;3.7043962000170723;;;494.28289039997617;;;;;;;;;;;;;;;;;;;;;;;;;;;;;;8;;;001;;;2024-09-23_18h18.23.574;;;TEST_eye_tracker;;;2023.1.0;;;None;;;
967;;;C:\Users\lab_user\Desktop\LLM_Study\responses_files\prompt_967.xlsx;;;Explaind machiavellianism in less than 100 words.;;;;;;;;;0.888;;;;;;0;;;6;;;6;;;21;;;;;;;;;;;;;;;;;;;;;;;;;;;;;;;;;;;;;;;;;;;;;;;;;;;;;;;;;;;;;;;Explaind machiavellianism in less than 100 words.;;;0.888;;;;;;;;;;;;;;;;;;;;;;;;;;;;;;;;;;;;;;;;;;;;;;;;;;;;;;;;;;;;514.358189599996;;;514.358189599996;;;516.6909249000018;;;516.6909249000018;;;2;;;2.3164298000046983;;;space;;;0.5949979000142775;;;;;;8;;;001;;;2024-09-23_18h18.23.574;;;TEST_eye_tracker;;;2023.1.0;;;None;;;
961;;;C:\Users\lab_user\Desktop\LLM_Study\responses_files\prompt_961.xlsx;;;How is the use of Chinese Characters in Japanese different than the use in the Chinese languages?;;;961;;;961.1;;;"In Chinese, Chinese characters are known as Hanzi (漢字), while in Japanese they are known as kanji (漢字). Though they are used the same, they are often pronounced differently.";;;1;;;0;;;7;;;7;;;15;;;0;;;0;;;0;;;0;;;;;;;;;;;;;;;;;;;;;;;;;;;517.4105020999559;;;517.9423150999937;;;517.9423150999937;;;517.9423150999937;;;517.9423150999937;;;None;;;1;;;5.475348600011785;;;How is the use of Chinese Characters in Japanese different than the use in the Chinese languages?;;;"In Chinese, Chinese characters are known as Hanzi (漢字), while in Japanese they are known as kanji (漢字). Though they are used the same, they are often pronounced differently.";;;523.7758474999573;;;524.8216666999506;;;space;;;9.81653179996647;;;535.0377811999642;;;535.0377811999642;;;535.0377811999642;;;535.0377811999642;;;539.1225703999517;;;539.1225703999517;;;space;;;0.7395374999614432;;;4;;;2.0114498999901116;;;3;;;3.2795154999475926;;;5;;;4.081129400001373;;;;;;;;;;;;;;;;;;;;;;;;;;;;;;;;;8;;;001;;;2024-09-23_18h18.23.574;;;TEST_eye_tracker;;;2023.1.0;;;None;;;
961;;;C:\Users\lab_user\Desktop\LLM_Study\responses_files\prompt_961.xlsx;;;How is the use of Chinese Characters in Japanese different than the use in the Chinese languages?;;;961;;;961.2;;;"Some Chinese Characters are actually adopted into Japanese. For example, the Chinese character “刀” （Dāo）will be read as “Katana” in “kun’yomi” since the word is native to Japanese. While in “日本刀” the pronunciation is “nihontō” (on’yomi) because it is borrowed from Chinese which means “Japanese sword”. Source: https://languagetutor.com.au/what-is-the-difference-between-chinese-and-japanese-characters/";;;2;;;0;;;7;;;7;;;15;;;0;;;1;;;1;;;1;;;;;;;;;;;;;;;;;;;;;;;;;;;;;;;;;;;;;;;;;;;;;;;;;;;How is the use of Chinese Characters in Japanese different than the use in the Chinese languages?;;;"Some Chinese Characters are actually adopted into Japanese. For example, the Chinese character “刀” （Dāo）will be read as “Katana” in “kun’yomi” since the word is native to Japanese. While in “日本刀” the pronunciation is “nihontō” (on’yomi) because it is borrowed from Chinese which means “Japanese sword”. Source: https://languagetutor.com.au/what-is-the-difference-between-chinese-and-japanese-characters/";;;539.9160163999768;;;540.9845060999505;;;space;;;14.765637000033166;;;556.2008010999998;;;556.2008010999998;;;556.2008010999998;;;556.2008010999998;;;560.9124053999549;;;560.9124053999549;;;space;;;0.4849932999932207;;;2;;;3.2059635000186972;;;3;;;3.981400799995754;;;5;;;4.717175500001758;;;;;;;;;;;;;;;;;;;;;;;;;;;;;;;;;8;;;001;;;2024-09-23_18h18.23.574;;;TEST_eye_tracker;;;2023.1.0;;;None;;;
961;;;C:\Users\lab_user\Desktop\LLM_Study\responses_files\prompt_961.xlsx;;;How is the use of Chinese Characters in Japanese different than the use in the Chinese languages?;;;;;;;;;0.888;;;;;;0;;;7;;;7;;;15;;;;;;;;;;;;;;;;;;;;;;;;;;;;;;;;;;;;;;;;;;;;;;;;;;;;;;;;;;;;;;;How is the use of Chinese Characters in Japanese different than the use in the Chinese languages?;;;0.888;;;;;;;;;;;;;;;;;;;;;;;;;;;;;;;;;;;;;;;;;;;;;;;;;;;;;;;;;;;;561.466148699983;;;561.466148699983;;;563.4417075999663;;;563.4417075999663;;;1;;;1.9520170000032522;;;space;;;0.37784149998333305;;;;;;8;;;001;;;2024-09-23_18h18.23.574;;;TEST_eye_tracker;;;2023.1.0;;;None;;;
958;;;C:\Users\lab_user\Desktop\LLM_Study\responses_files\prompt_958.xlsx;;;Hi! I would like to know if you can roleplay a human for me.;;;958;;;958.3;;;Hello. I am Steven He. I am a professional Asian. What can I do for you?;;;2;;;0;;;8;;;8;;;12;;;0;;;0;;;0;;;1;;;;;;;;;;;;;;;;;;;;;;;;;;;563.9718697999488;;;564.5808431999758;;;564.5808431999758;;;564.5808431999758;;;564.5808431999758;;;None;;;1;;;3.10452609998174;;;Hi! I would like to know if you can roleplay a human for me.;;;Hello. I am Steven He. I am a professional Asian. What can I do for you?;;;568.0752559999819;;;569.0852270000032;;;space;;;5.104822000022978;;;574.5819303999888;;;574.5819303999888;;;574.5819303999888;;;574.5819303999888;;;582.8408586999867;;;582.8408586999867;;;space;;;1.6213793000206351;;;1;;;1.606119200005196;;;2;;;6.878505600034259;;;5;;;9.163701600045897;;;;;;;;;;;;;;;;;;;;;;;;;;;;;;;;;8;;;001;;;2024-09-23_18h18.23.574;;;TEST_eye_tracker;;;2023.1.0;;;None;;;
958;;;C:\Users\lab_user\Desktop\LLM_Study\responses_files\prompt_958.xlsx;;;Hi! I would like to know if you can roleplay a human for me.;;;958;;;958.1;;;Of course! As I am a language model trained on numerous text and human interactions and can even pretend to have emotions. Is there a specific human you want me to roleplay as or should I just be your average human?;;;0;;;0;;;8;;;8;;;12;;;0;;;1;;;1;;;0;;;;;;;;;;;;;;;;;;;;;;;;;;;;;;;;;;;;;;;;;;;;;;;;;;;Hi! I would like to know if you can roleplay a human for me.;;;Of course! As I am a language model trained on numerous text and human interactions and can even pretend to have emotions. Is there a specific human you want me to roleplay as or should I just be your average human?;;;584.4894531999598;;;585.5107246999978;;;space;;;11.830869299999904;;;597.7598592999857;;;597.7598592999857;;;597.7598592999857;;;597.7598592999857;;;604.7200370999635;;;604.7200370999635;;;space;;;0.9097268999903463;;;2;;;3.2712891999981366;;;4;;;1.5939402999938466;;;5;;;6.938774499983992;;;;;;;;;;;;;;;;;;;;;;;;;;;;;;;;;8;;;001;;;2024-09-23_18h18.23.574;;;TEST_eye_tracker;;;2023.1.0;;;None;;;
958;;;C:\Users\lab_user\Desktop\LLM_Study\responses_files\prompt_958.xlsx;;;Hi! I would like to know if you can roleplay a human for me.;;;;;;;;;0.888;;;;;;0;;;8;;;8;;;12;;;;;;;;;;;;;;;;;;;;;;;;;;;;;;;;;;;;;;;;;;;;;;;;;;;;;;;;;;;;;;;Hi! I would like to know if you can roleplay a human for me.;;;0.888;;;;;;;;;;;;;;;;;;;;;;;;;;;;;;;;;;;;;;;;;;;;;;;;;;;;;;;;;;;;605.6961096999585;;;605.6961096999585;;;607.7999907999765;;;607.7999907999765;;;1;;;2.0703986000153236;;;space;;;0.6461596000008285;;;;;;8;;;001;;;2024-09-23_18h18.23.574;;;TEST_eye_tracker;;;2023.1.0;;;None;;;
982;;;C:\Users\lab_user\Desktop\LLM_Study\responses_files\prompt_982.xlsx;;;Dsigcibe to the mechanism by which nociception is modulated by neuropeptide in the organism of C Elegans;;;982;;;982.1;;;I'm sorry but I think you have grammatical errors in your question. Can you please rephrase or fix the grammatical errors so that I can understand what you meant?;;;0;;;0;;;9;;;9;;;36;;;0;;;0;;;0;;;0;;;;;;;;;;;;;;;;;;;;;;;;;;;608.5597749999724;;;609.0813571999897;;;609.0813571999897;;;609.0813571999897;;;609.0813571999897;;;None;;;2;;;11.67850159999216;;;Dsigcibe to the mechanism by which nociception is modulated by neuropeptide in the organism of C Elegans;;;I'm sorry but I think you have grammatical errors in your question. Can you please rephrase or fix the grammatical errors so that I can understand what you meant?;;;620.8163322999608;;;;;;None;;;;;;;;;;;;;;;;;;;;;;;;None;;;;;;None;;;None;;;None;;;None;;;None;;;None;;;;;;;;;;;;;;;;;;;;;;;;;;;;;;;;;8;;;001;;;2024-09-23_18h18.23.574;;;TEST_eye_tracker;;;2023.1.0;;;None;;;
982;;;C:\Users\lab_user\Desktop\LLM_Study\responses_files\prompt_982.xlsx;;;Dsigcibe to the mechanism by which nociception is modulated by neuropeptide in the organism of C Elegans;;;982;;;982.2;;;Can you rephrase the question please?;;;2;;;0;;;9;;;9;;;36;;;0;;;1;;;1;;;1;;;;;;;;;;;;;;;;;;;;;;;;;;;;;;;;;;;;;;;;;;;;;;;;;;;Dsigcibe to the mechanism by which nociception is modulated by neuropeptide in the organism of C Elegans;;;Can you rephrase the question please?;;;621.8310992000042;;;;;;None;;;;;;;;;;;;;;;;;;;;;;;;None;;;;;;None;;;None;;;None;;;None;;;None;;;None;;;;;;;;;;;;;;;;;;;;;;;;;;;;;;;;;8;;;001;;;2024-09-23_18h18.23.574;;;TEST_eye_tracker;;;2023.1.0;;;None;;;
982;;;C:\Users\lab_user\Desktop\LLM_Study\responses_files\prompt_982.xlsx;;;Dsigcibe to the mechanism by which nociception is modulated by neuropeptide in the organism of C Elegans;;;;;;;;;0.888;;;;;;0;;;9;;;9;;;36;;;;;;;;;;;;;;;;;;;;;;;;;;;;;;;;;;;;;;;;;;;;;;;;;;;;;;;;;;;;;;;Dsigcibe to the mechanism by which nociception is modulated by neuropeptide in the organism of C Elegans;;;0.888;;;;;;;;;;;;;;;;;;;;;;;;;;;;;;;;;;;;;;;;;;;;;;;;;;;;;;;;;;;;;;;;;;;;;;;;None;;;None;;;None;;;;;;;;;8;;;001;;;2024-09-23_18h18.23.574;;;TEST_eye_tracker;;;2023.1.0;;;None;;;
976;;;C:\Users\lab_user\Desktop\LLM_Study\responses_files\prompt_976.xlsx;;;"For azure keyvault, using the az cli, how do I list the 10 last created secrets?";;;976;;;976.1;;;"To list the 10 last created secrets in Azure Key Vault using the Azure CLI, you can use the following command: ```bash az keyvault secret list --vault-name <key-vault-name> --query "reverse(sort_by([].{Created:attributes.created, Name: id}, &Created))[0:10].Name" --output table This command uses the az keyvault secret list command with the --query parameter to filter the output and only show the 10 most recently created secrets. ``` Make sure to replace <key-vault-name> with the name of your Key Vault. The command will output the list of secrets in a table format, with the most recently created secret appearing first.";;;0;;;0;;;10;;;10;;;30;;;0;;;0;;;0;;;0;;;;;;;;;;;;;;;;;;;;;;;;;;;623.0028708999744;;;623.5544302999624;;;623.5544302999624;;;623.5544302999624;;;623.5544302999624;;;None;;;1;;;4.713945099967532;;;"For azure keyvault, using the az cli, how do I list the 10 last created secrets?";;;"To list the 10 last created secrets in Azure Key Vault using the Azure CLI, you can use the following command: ```bash az keyvault secret list --vault-name <key-vault-name> --query "reverse(sort_by([].{Created:attributes.created, Name: id}, &Created))[0:10].Name" --output table This command uses the az keyvault secret list command with the --query parameter to filter the output and only show the 10 most recently created secrets. ``` Make sure to replace <key-vault-name> with the name of your Key Vault. The command will output the list of secrets in a table format, with the most recently created secret appearing first.";;;628.6565198999597;;;629.7130177999497;;;space;;;14.844864500046242;;;644.9826959999627;;;644.9826959999627;;;644.9826959999627;;;644.9826959999627;;;649.4465465999674;;;649.4465465999674;;;space;;;0.4627539000357501;;;4;;;2.4737864000489935;;;3;;;3.5009231999865733;;;5;;;4.431453500001226;;;;;;;;;;;;;;;;;;;;;;;;;;;;;;;;;8;;;001;;;2024-09-23_18h18.23.574;;;TEST_eye_tracker;;;2023.1.0;;;None;;;
976;;;C:\Users\lab_user\Desktop\LLM_Study\responses_files\prompt_976.xlsx;;;"For azure keyvault, using the az cli, how do I list the 10 last created secrets?";;;976;;;976.2;;;you can use the ``az keyvault secret list`` command to list secrets in a specified key vault;;;2;;;0;;;10;;;10;;;30;;;0;;;1;;;1;;;1;;;;;;;;;;;;;;;;;;;;;;;;;;;;;;;;;;;;;;;;;;;;;;;;;;;"For azure keyvault, using the az cli, how do I list the 10 last created secrets?";;;you can use the ``az keyvault secret list`` command to list secrets in a specified key vault;;;649.9471356999711;;;650.9713373999693;;;space;;;2.1382828999776393;;;653.590602799959;;;653.590602799959;;;653.590602799959;;;653.590602799959;;;656.7427909999969;;;656.7427909999969;;;space;;;0.3753971999976784;;;2;;;1.275800800009165;;;3;;;2.320237499952782;;;5;;;3.131435099989176;;;;;;;;;;;;;;;;;;;;;;;;;;;;;;;;;8;;;001;;;2024-09-23_18h18.23.574;;;TEST_eye_tracker;;;2023.1.0;;;None;;;
976;;;C:\Users\lab_user\Desktop\LLM_Study\responses_files\prompt_976.xlsx;;;"For azure keyvault, using the az cli, how do I list the 10 last created secrets?";;;;;;;;;0.888;;;;;;0;;;10;;;10;;;30;;;;;;;;;;;;;;;;;;;;;;;;;;;;;;;;;;;;;;;;;;;;;;;;;;;;;;;;;;;;;;;"For azure keyvault, using the az cli, how do I list the 10 last created secrets?";;;0.888;;;;;;;;;;;;;;;;;;;;;;;;;;;;;;;;;;;;;;;;;;;;;;;;;;;;;;;;;;;;657.1990615999675;;;657.1990615999675;;;658.5160240999539;;;658.5160240999539;;;1;;;1.2989353999728337;;;space;;;0.4189100000075996;;;;;;8;;;001;;;2024-09-23_18h18.23.574;;;TEST_eye_tracker;;;2023.1.0;;;None;;;
954;;;C:\Users\lab_user\Desktop\LLM_Study\responses_files\prompt_954.xlsx;;;"Yesterday I told you to "put a pin in that", what was I talking about?";;;954;;;954.1;;;"I do not have the ability to retain information from previous conversations unless it is provided to me. Therefore, I do not have any context about what you might have asked or mentioned previously. If you could provide me with more information or context about the conversation, I would be happy to assist you further.";;;0;;;0;;;11;;;11;;;8;;;0;;;0;;;0;;;0;;;;;;;;;;;;;;;;;;;;;;;;;;;659.0561070999829;;;659.5886151999584;;;659.5886151999584;;;659.5886151999584;;;659.5886151999584;;;None;;;1;;;6.298545199970249;;;"Yesterday I told you to "put a pin in that", what was I talking about?";;;"I do not have the ability to retain information from previous conversations unless it is provided to me. Therefore, I do not have any context about what you might have asked or mentioned previously. If you could provide me with more information or context about the conversation, I would be happy to assist you further.";;;666.2600414999761;;;667.2362364999717;;;space;;;15.138093399989884;;;682.7957427999936;;;682.7957427999936;;;682.7957427999936;;;682.7957427999936;;;689.4426921999548;;;689.4426921999548;;;space;;;0.5871050000423566;;;3;;;6.629709600005299;;;4;;;1.5213858999777585;;;5;;;3.0843585000257008;;;;;;;;;;;;;;;;;;;;;;;;;;;;;;;;;8;;;001;;;2024-09-23_18h18.23.574;;;TEST_eye_tracker;;;2023.1.0;;;None;;;
954;;;C:\Users\lab_user\Desktop\LLM_Study\responses_files\prompt_954.xlsx;;;"Yesterday I told you to "put a pin in that", what was I talking about?";;;954;;;954.3;;;"I'm sorry, but as an AI language model, I don't have the ability to remember past conversations or interactions with a specific user. However, if you could provide me with more context or information about what you were discussing at the time, I might be able to help you recall what you were referring to.";;;2;;;0;;;11;;;11;;;8;;;0;;;1;;;1;;;1;;;;;;;;;;;;;;;;;;;;;;;;;;;;;;;;;;;;;;;;;;;;;;;;;;;"Yesterday I told you to "put a pin in that", what was I talking about?";;;"I'm sorry, but as an AI language model, I don't have the ability to remember past conversations or interactions with a specific user. However, if you could provide me with more context or information about what you were discussing at the time, I might be able to help you recall what you were referring to.";;;690.0915638000006;;;691.1106737999944;;;space;;;9.375480299990159;;;700.8981344999629;;;700.8981344999629;;;700.8981344999629;;;700.8981344999629;;;705.0718479999923;;;705.0718479999923;;;space;;;0.4380618999712169;;;2;;;1.3920511999749579;;;4;;;3.477347699983511;;;5;;;4.142171200015582;;;;;;;;;;;;;;;;;;;;;;;;;;;;;;;;;8;;;001;;;2024-09-23_18h18.23.574;;;TEST_eye_tracker;;;2023.1.0;;;None;;;
954;;;C:\Users\lab_user\Desktop\LLM_Study\responses_files\prompt_954.xlsx;;;"Yesterday I told you to "put a pin in that", what was I talking about?";;;;;;;;;0.888;;;;;;0;;;11;;;11;;;8;;;;;;;;;;;;;;;;;;;;;;;;;;;;;;;;;;;;;;;;;;;;;;;;;;;;;;;;;;;;;;;"Yesterday I told you to "put a pin in that", what was I talking about?";;;0.888;;;;;;;;;;;;;;;;;;;;;;;;;;;;;;;;;;;;;;;;;;;;;;;;;;;;;;;;;;;;705.5995268999832;;;705.5995268999832;;;707.4858867999865;;;707.4858867999865;;;1;;;1.8393480000086129;;;space;;;0.4092153999954462;;;;;;8;;;001;;;2024-09-23_18h18.23.574;;;TEST_eye_tracker;;;2023.1.0;;;None;;;
970;;;C:\Users\lab_user\Desktop\LLM_Study\responses_files\prompt_970.xlsx;;;What are the advantages of a Montessori floor bed?;;;970;;;970.2;;;"A Montessori floor bed is a mattress that is low to the ground and allows children to get in and out of bed by themselves. Some advantages of a Montessori floor bed are: - It fosters independence, self-reliance, and decision-making skills. - It encourages exploration and learning by seeking out toys or books in the room. - It can reduce nighttime struggles with parents and create a positive outlook on bedtimes. - It respects the child’s natural development and freedom of movement. Are you considering getting a Montessori floor bed for your child?";;;2;;;0;;;12;;;12;;;24;;;0;;;0;;;0;;;1;;;;;;;;;;;;;;;;;;;;;;;;;;;708.0052534999559;;;708.5498860999942;;;708.5498860999942;;;708.5498860999942;;;708.5498860999942;;;None;;;2;;;5.537760300037917;;;What are the advantages of a Montessori floor bed?;;;"A Montessori floor bed is a mattress that is low to the ground and allows children to get in and out of bed by themselves. Some advantages of a Montessori floor bed are: - It fosters independence, self-reliance, and decision-making skills. - It encourages exploration and learning by seeking out toys or books in the room. - It can reduce nighttime struggles with parents and create a positive outlook on bedtimes. - It respects the child’s natural development and freedom of movement. Are you considering getting a Montessori floor bed for your child?";;;714.1313126999885;;;;;;None;;;;;;;;;;;;;;;;;;;;;;;;None;;;;;;None;;;None;;;None;;;None;;;None;;;None;;;;;;;;;;;;;;;;;;;;;;;;;;;;;;;;;8;;;001;;;2024-09-23_18h18.23.574;;;TEST_eye_tracker;;;2023.1.0;;;None;;;
970;;;C:\Users\lab_user\Desktop\LLM_Study\responses_files\prompt_970.xlsx;;;What are the advantages of a Montessori floor bed?;;;970;;;970.1;;;"The Montessori floor bed is a floor bed for young children with the idea of Montessori method, which seeks to develop natural interests and activities rather than use formal teaching methods. Some of the advantages are as follows: - Without railings and height to limit the child's movement, the floor bed is less likely to make them feel trapped and helpless. Instead, it encourages exploration and making decisions, which the Montessori method promotes. - It saves money. A Montessori floor bed is cheaper and easier to expand as the child grows up. - Parents don't need to assist their children getting in and off bed as much, meaning a more peaceful morning/night and a chance to teach the children to set a routine.";;;1;;;0;;;12;;;12;;;24;;;0;;;1;;;1;;;0;;;;;;;;;;;;;;;;;;;;;;;;;;;;;;;;;;;;;;;;;;;;;;;;;;;What are the advantages of a Montessori floor bed?;;;"The Montessori floor bed is a floor bed for young children with the idea of Montessori method, which seeks to develop natural interests and activities rather than use formal teaching methods. Some of the advantages are as follows: - Without railings and height to limit the child's movement, the floor bed is less likely to make them feel trapped and helpless. Instead, it encourages exploration and making decisions, which the Montessori method promotes. - It saves money. A Montessori floor bed is cheaper and easier to expand as the child grows up. - Parents don't need to assist their children getting in and off bed as much, meaning a more peaceful morning/night and a chance to teach the children to set a routine.";;;715.2010854999535;;;;;;None;;;;;;;;;;;;;;;;;;;;;;;;None;;;;;;None;;;None;;;None;;;None;;;None;;;None;;;;;;;;;;;;;;;;;;;;;;;;;;;;;;;;;8;;;001;;;2024-09-23_18h18.23.574;;;TEST_eye_tracker;;;2023.1.0;;;None;;;
970;;;C:\Users\lab_user\Desktop\LLM_Study\responses_files\prompt_970.xlsx;;;What are the advantages of a Montessori floor bed?;;;;;;;;;0.888;;;;;;0;;;12;;;12;;;24;;;;;;;;;;;;;;;;;;;;;;;;;;;;;;;;;;;;;;;;;;;;;;;;;;;;;;;;;;;;;;;What are the advantages of a Montessori floor bed?;;;0.888;;;;;;;;;;;;;;;;;;;;;;;;;;;;;;;;;;;;;;;;;;;;;;;;;;;;;;;;;;;;;;;;;;;;;;;;None;;;None;;;None;;;;;;;;;8;;;001;;;2024-09-23_18h18.23.574;;;TEST_eye_tracker;;;2023.1.0;;;None;;;
963;;;C:\Users\lab_user\Desktop\LLM_Study\responses_files\prompt_963.xlsx;;;"For small businesses, what kinds of machinery can help a confectionary business?";;;963;;;963.1;;;There are many types of machinery that is useful for confectionary businesses. Can you tell me what types of confectionary products this business produces?;;;1;;;0;;;13;;;13;;;17;;;0;;;0;;;0;;;0;;;;;;;;;;;;;;;;;;;;;;;;;;;716.3844712999999;;;716.9448807999725;;;716.9448807999725;;;716.9448807999725;;;716.9448807999725;;;None;;;1;;;5.881060900050215;;;"For small businesses, what kinds of machinery can help a confectionary business?";;;There are many types of machinery that is useful for confectionary businesses. Can you tell me what types of confectionary products this business produces?;;;723.2031417999533;;;724.1764412999619;;;space;;;5.031022800016217;;;729.6287520999904;;;729.6287520999904;;;729.6287520999904;;;729.6287520999904;;;735.1646233999636;;;735.1646233999636;;;space;;;1.0007477999897674;;;2;;;2.7089953999966383;;;4;;;4.7928485999582335;;;5;;;5.523645399953239;;;;;;;;;;;;;;;;;;;;;;;;;;;;;;;;;8;;;001;;;2024-09-23_18h18.23.574;;;TEST_eye_tracker;;;2023.1.0;;;None;;;
963;;;C:\Users\lab_user\Desktop\LLM_Study\responses_files\prompt_963.xlsx;;;"For small businesses, what kinds of machinery can help a confectionary business?";;;963;;;963.2;;;"A Confectionery makes sweet foods, high in sugar. The equipment needed to produce Confections may include: Ovens Proof Boxes Bakeware Mixers Work Tables Chillers Sinks Freezers Sheeter Storage and display racks Packaging equipment";;;2;;;0;;;13;;;13;;;17;;;0;;;1;;;1;;;1;;;;;;;;;;;;;;;;;;;;;;;;;;;;;;;;;;;;;;;;;;;;;;;;;;;"For small businesses, what kinds of machinery can help a confectionary business?";;;"A Confectionery makes sweet foods, high in sugar. The equipment needed to produce Confections may include: Ovens Proof Boxes Bakeware Mixers Work Tables Chillers Sinks Freezers Sheeter Storage and display racks Packaging equipment";;;736.1889582999866;;;737.2001385999611;;;space;;;13.701199800008908;;;751.3354215999716;;;751.3354215999716;;;751.3354215999716;;;751.3354215999716;;;756.0735649999697;;;756.0735649999697;;;space;;;1.116127300017979;;;2;;;2.0563685999950394;;;3;;;3.6334146999870427;;;5;;;4.7237670999602415;;;;;;;;;;;;;;;;;;;;;;;;;;;;;;;;;8;;;001;;;2024-09-23_18h18.23.574;;;TEST_eye_tracker;;;2023.1.0;;;None;;;
963;;;C:\Users\lab_user\Desktop\LLM_Study\responses_files\prompt_963.xlsx;;;"For small businesses, what kinds of machinery can help a confectionary business?";;;;;;;;;0.888;;;;;;0;;;13;;;13;;;17;;;;;;;;;;;;;;;;;;;;;;;;;;;;;;;;;;;;;;;;;;;;;;;;;;;;;;;;;;;;;;;"For small businesses, what kinds of machinery can help a confectionary business?";;;0.888;;;;;;;;;;;;;;;;;;;;;;;;;;;;;;;;;;;;;;;;;;;;;;;;;;;;;;;;;;;;757.2565274999943;;;757.2565274999943;;;758.4184390999726;;;758.4184390999726;;;2;;;1.1303973000030965;;;space;;;0.8832835000357591;;;;;;8;;;001;;;2024-09-23_18h18.23.574;;;TEST_eye_tracker;;;2023.1.0;;;None;;;
979;;;C:\Users\lab_user\Desktop\LLM_Study\responses_files\prompt_979.xlsx;;;What is the largest city in the world? And how many people are moving there?;;;979;;;979.2;;;"The largest city in the world is Chongqing, China with 82,403 km^2. I do not understand what you mean by people moving there. Assuming you mean living there, population of Chongqing is 32 million.";;;2;;;0;;;14;;;14;;;33;;;0;;;0;;;0;;;1;;;;;;;;;;;;;;;;;;;;;;;;;;;759.4203533999971;;;759.9623302999535;;;759.9623302999535;;;759.9623302999535;;;759.9623302999535;;;None;;;1;;;4.00263190001715;;;What is the largest city in the world? And how many people are moving there?;;;"The largest city in the world is Chongqing, China with 82,403 km^2. I do not understand what you mean by people moving there. Assuming you mean living there, population of Chongqing is 32 million.";;;764.3402055999613;;;765.3214548999676;;;space;;;10.395894199959002;;;776.1365329999826;;;776.1365329999826;;;776.1365329999826;;;776.1365329999826;;;780.5389391999925;;;780.5389391999925;;;space;;;0.804004099976737;;;2;;;1.5812548999674618;;;2;;;2.77655120001873;;;5;;;4.381612800003495;;;;;;;;;;;;;;;;;;;;;;;;;;;;;;;;;8;;;001;;;2024-09-23_18h18.23.574;;;TEST_eye_tracker;;;2023.1.0;;;None;;;
979;;;C:\Users\lab_user\Desktop\LLM_Study\responses_files\prompt_979.xlsx;;;What is the largest city in the world? And how many people are moving there?;;;979;;;979.1;;;"As of April 8, 2023, Tokyo has the largest population in the world. It had a population of approximately 37 million people in the Greater Tokyo Area and a growth rate of about 0.2% which is low.";;;1;;;0;;;14;;;14;;;33;;;0;;;1;;;1;;;0;;;;;;;;;;;;;;;;;;;;;;;;;;;;;;;;;;;;;;;;;;;;;;;;;;;What is the largest city in the world? And how many people are moving there?;;;"As of April 8, 2023, Tokyo has the largest population in the world. It had a population of approximately 37 million people in the Greater Tokyo Area and a growth rate of about 0.2% which is low.";;;781.4110394999734;;;782.458235899976;;;space;;;5.6770388999721035;;;788.5524017999996;;;788.5524017999996;;;788.5524017999996;;;788.5524017999996;;;794.3001287999796;;;794.3001287999796;;;space;;;0.5775818999973126;;;4;;;1.8756443000165746;;;3;;;4.562906400009524;;;5;;;5.741149999957997;;;;;;;;;;;;;;;;;;;;;;;;;;;;;;;;;8;;;001;;;2024-09-23_18h18.23.574;;;TEST_eye_tracker;;;2023.1.0;;;None;;;
979;;;C:\Users\lab_user\Desktop\LLM_Study\responses_files\prompt_979.xlsx;;;What is the largest city in the world? And how many people are moving there?;;;;;;;;;0.888;;;;;;0;;;14;;;14;;;33;;;;;;;;;;;;;;;;;;;;;;;;;;;;;;;;;;;;;;;;;;;;;;;;;;;;;;;;;;;;;;;What is the largest city in the world? And how many people are moving there?;;;0.888;;;;;;;;;;;;;;;;;;;;;;;;;;;;;;;;;;;;;;;;;;;;;;;;;;;;;;;;;;;;794.9448174999561;;;794.9448174999561;;;797.0431478999672;;;797.0431478999672;;;2;;;2.056980299996212;;;space;;;0.41784099995857105;;;;;;8;;;001;;;2024-09-23_18h18.23.574;;;TEST_eye_tracker;;;2023.1.0;;;None;;;
969;;;C:\Users\lab_user\Desktop\LLM_Study\responses_files\prompt_969.xlsx;;;what is the height of the empire state building;;;969;;;969.3;;;"The simple answer is 1,454 feet.";;;2;;;0;;;15;;;15;;;23;;;0;;;0;;;0;;;1;;;;;;;;;;;;;;;;;;;;;;;;;;;797.575466899958;;;798.109037999995;;;798.109037999995;;;798.109037999995;;;798.109037999995;;;None;;;1;;;3.7332688000169583;;;what is the height of the empire state building;;;"The simple answer is 1,454 feet.";;;802.1973221999942;;;803.1831516999518;;;space;;;2.502046200039331;;;806.1194320999784;;;806.1194320999784;;;806.1194320999784;;;806.1194320999784;;;809.9824068999733;;;809.9824068999733;;;space;;;0.5269637999590486;;;2;;;2.3062554000061937;;;3;;;3.2535758000449277;;;5;;;3.8486519000143744;;;;;;;;;;;;;;;;;;;;;;;;;;;;;;798.109037999995;;;8;;;001;;;2024-09-23_18h18.23.574;;;TEST_eye_tracker;;;2023.1.0;;;None;;;
969;;;C:\Users\lab_user\Desktop\LLM_Study\responses_files\prompt_969.xlsx;;;what is the height of the empire state building;;;969;;;969.1;;;"381 meters, or 1,250 feet, is the height of the Empire State Building. If you also account for the antenna, it brings up the total height to 443 meters, or 1,454 feet";;;0;;;0;;;15;;;15;;;23;;;0;;;1;;;1;;;0;;;;;;;;;;;;;;;;;;;;;;;;;;;;;;;;;;;;;;;;;;;;;;;;;;;what is the height of the empire state building;;;"381 meters, or 1,250 feet, is the height of the Empire State Building. If you also account for the antenna, it brings up the total height to 443 meters, or 1,454 feet";;;810.5667292999569;;;811.5777678999584;;;space;;;5.5155531000345945;;;817.4851048999699;;;817.4851048999699;;;817.4851048999699;;;817.4851048999699;;;820.4118284999859;;;820.4118284999859;;;space;;;0.4415022999746725;;;5;;;1.2631995999836363;;;3;;;2.21555719996104;;;5;;;2.9025856000371277;;;811.5777678999584;;;;;;;;;;;;;;;;;;;;;;;;;;;;;;8;;;001;;;2024-09-23_18h18.23.574;;;TEST_eye_tracker;;;2023.1.0;;;None;;;
969;;;C:\Users\lab_user\Desktop\LLM_Study\responses_files\prompt_969.xlsx;;;what is the height of the empire state building;;;;;;;;;0.888;;;;;;0;;;15;;;15;;;23;;;;;;;;;;;;;;;;;;;;;;;;;;;;;;;;;;;;;;;;;;;;;;;;;;;;;;;;;;;;;;;what is the height of the empire state building;;;0.888;;;;;;;;;;;;;;;;;;;;;;;;;;;;;;;;;;;;;;;;;;;;;;;;;;;;;;;;;;;;820.9515036999946;;;820.9515036999946;;;822.8665695999516;;;822.8665695999516;;;2;;;1.8886532000033185;;;space;;;0.37926819996209815;;;;;;8;;;001;;;2024-09-23_18h18.23.574;;;TEST_eye_tracker;;;2023.1.0;;;None;;;
971;;;C:\Users\lab_user\Desktop\LLM_Study\responses_files\prompt_971.xlsx;;;Write me a short paragraph about the difference of anatase and rutile crystal configurations;;;971;;;971.1;;;"Anatase and rutile are two crystalline forms of titanium dioxide, a white, opaque mineral used in many industrial and consumer applications. The main difference between anatase and rutile is their crystal structure. Anatase has a tetragonal structure, meaning it has four sides and four angles, while rutile has a more compact, rhombohedral structure with six sides and angles. Anatase is also typically less dense and more reactive than rutile, and it often has a higher surface area, which makes it useful in photocatalytic applications. Rutile, on the other hand, is more stable and has a higher refractive index, which makes it valuable in the production of high-index glass, optical coatings, and other optical applications.";;;0;;;0;;;16;;;16;;;25;;;0;;;0;;;0;;;0;;;;;;;;;;;;;;;;;;;;;;;;;;;823.3604180999682;;;823.8953346999479;;;823.8953346999479;;;823.8953346999479;;;823.8953346999479;;;None;;;2;;;6.281471900001634;;;Write me a short paragraph about the difference of anatase and rutile crystal configurations;;;"Anatase and rutile are two crystalline forms of titanium dioxide, a white, opaque mineral used in many industrial and consumer applications. The main difference between anatase and rutile is their crystal structure. Anatase has a tetragonal structure, meaning it has four sides and four angles, while rutile has a more compact, rhombohedral structure with six sides and angles. Anatase is also typically less dense and more reactive than rutile, and it often has a higher surface area, which makes it useful in photocatalytic applications. Rutile, on the other hand, is more stable and has a higher refractive index, which makes it valuable in the production of high-index glass, optical coatings, and other optical applications.";;;830.2181867999607;;;;;;None;;;;;;;;;;;;;;;;;;;;;;;;None;;;;;;None;;;None;;;None;;;None;;;None;;;None;;;;;;;;;;;;;;;;;;;;;;;;;;;;;;;;;8;;;001;;;2024-09-23_18h18.23.574;;;TEST_eye_tracker;;;2023.1.0;;;None;;;
971;;;C:\Users\lab_user\Desktop\LLM_Study\responses_files\prompt_971.xlsx;;;Write me a short paragraph about the difference of anatase and rutile crystal configurations;;;971;;;971.2;;;"Anatase and rutile are two different crystal configurations of titanium dioxide (TiO2). Anatase is the most stable form of TiO2 and is often used in photocatalytic applications due to its longer carrier lifetime and exciton diffusion length. On the other hand, the rutile crystal configuration has a higher band gap and is more resistant to structural changes, making it more suitable for optoelectronic applications. Both configurations have unique properties, and the choice of which to use depends on the specific application.";;;1;;;0;;;16;;;16;;;25;;;0;;;1;;;1;;;1;;;;;;;;;;;;;;;;;;;;;;;;;;;;;;;;;;;;;;;;;;;;;;;;;;;Write me a short paragraph about the difference of anatase and rutile crystal configurations;;;"Anatase and rutile are two different crystal configurations of titanium dioxide (TiO2). Anatase is the most stable form of TiO2 and is often used in photocatalytic applications due to its longer carrier lifetime and exciton diffusion length. On the other hand, the rutile crystal configuration has a higher band gap and is more resistant to structural changes, making it more suitable for optoelectronic applications. Both configurations have unique properties, and the choice of which to use depends on the specific application.";;;831.2525169999572;;;;;;None;;;;;;;;;;;;;;;;;;;;;;;;None;;;;;;None;;;None;;;None;;;None;;;None;;;None;;;;;;;;;;;;;;;;;;;;;;;;;;;;;;;;;8;;;001;;;2024-09-23_18h18.23.574;;;TEST_eye_tracker;;;2023.1.0;;;None;;;
971;;;C:\Users\lab_user\Desktop\LLM_Study\responses_files\prompt_971.xlsx;;;Write me a short paragraph about the difference of anatase and rutile crystal configurations;;;;;;;;;0.888;;;;;;0;;;16;;;16;;;25;;;;;;;;;;;;;;;;;;;;;;;;;;;;;;;;;;;;;;;;;;;;;;;;;;;;;;;;;;;;;;;Write me a short paragraph about the difference of anatase and rutile crystal configurations;;;0.888;;;;;;;;;;;;;;;;;;;;;;;;;;;;;;;;;;;;;;;;;;;;;;;;;;;;;;;;;;;;;;;;;;;;;;;;None;;;None;;;None;;;;;;;;;8;;;001;;;2024-09-23_18h18.23.574;;;TEST_eye_tracker;;;2023.1.0;;;None;;;
977;;;C:\Users\lab_user\Desktop\LLM_Study\responses_files\prompt_977.xlsx;;;What are the main considerations for backing up a large photo library?;;;977;;;977.3;;;"1. Make sure that said photo library contains everything it should, which means there are no photos scattered elsewhere. 2. With a different group of photos than the main one, do a test of how you would do it, that way you make sure that the method you use will not corrupt any file.";;;2;;;0;;;17;;;17;;;31;;;0;;;0;;;0;;;1;;;;;;;;;;;;;;;;;;;;;;;;;;;832.4123856999795;;;832.940830699983;;;832.940830699983;;;832.940830699983;;;832.940830699983;;;None;;;1;;;4.030533200013451;;;What are the main considerations for backing up a large photo library?;;;"1. Make sure that said photo library contains everything it should, which means there are no photos scattered elsewhere. 2. With a different group of photos than the main one, do a test of how you would do it, that way you make sure that the method you use will not corrupt any file.";;;837.3866308999714;;;838.3515269999625;;;space;;;12.629867599986028;;;851.4174591999617;;;851.4174591999617;;;851.4174591999617;;;851.4174591999617;;;857.7510177999502;;;857.7510177999502;;;space;;;0.5820061999838799;;;2;;;1.6471948999678716;;;3;;;5.37055789999431;;;5;;;6.329613299982157;;;;;;;;;;;;;;;;;;;;;;;;;;;;;;832.940830699983;;;8;;;001;;;2024-09-23_18h18.23.574;;;TEST_eye_tracker;;;2023.1.0;;;None;;;
977;;;C:\Users\lab_user\Desktop\LLM_Study\responses_files\prompt_977.xlsx;;;What are the main considerations for backing up a large photo library?;;;977;;;977.1;;;"First of all you should always follow the 3-2-1 backup rule. - At least 3 separate backups - On at least 2 different devices - At least one backup off site, so outside of your home. You should also make sure that you take backups regularly and that you have a plan to restore the backup and you test that plan. A backup that you can't restore is a useless backup. It is also very useful to automate your backups so that they will be up to date.";;;0;;;0;;;17;;;17;;;31;;;0;;;1;;;1;;;0;;;;;;;;;;;;;;;;;;;;;;;;;;;;;;;;;;;;;;;;;;;;;;;;;;;What are the main considerations for backing up a large photo library?;;;"First of all you should always follow the 3-2-1 backup rule. - At least 3 separate backups - On at least 2 different devices - At least one backup off site, so outside of your home. You should also make sure that you take backups regularly and that you have a plan to restore the backup and you test that plan. A backup that you can't restore is a useless backup. It is also very useful to automate your backups so that they will be up to date.";;;858.3997966999887;;;859.4162929999875;;;space;;;11.221950699982699;;;871.1181396999746;;;871.1181396999746;;;871.1181396999746;;;871.1181396999746;;;874.3525753999711;;;874.3525753999711;;;space;;;0.8144082999788225;;;5;;;0.9793561000260524;;;3;;;2.6350942999706604;;;5;;;3.2244804999791086;;;;;;;;;;;;;;;;;;;;;;;;;;;;;;;;;8;;;001;;;2024-09-23_18h18.23.574;;;TEST_eye_tracker;;;2023.1.0;;;None;;;
977;;;C:\Users\lab_user\Desktop\LLM_Study\responses_files\prompt_977.xlsx;;;What are the main considerations for backing up a large photo library?;;;;;;;;;0.888;;;;;;0;;;17;;;17;;;31;;;;;;;;;;;;;;;;;;;;;;;;;;;;;;;;;;;;;;;;;;;;;;;;;;;;;;;;;;;;;;;What are the main considerations for backing up a large photo library?;;;0.888;;;;;;;;;;;;;;;;;;;;;;;;;;;;;;;;;;;;;;;;;;;;;;;;;;;;;;;;;;;;875.2477743999916;;;875.2477743999916;;;876.9807918999577;;;876.9807918999577;;;2;;;1.7198666000040248;;;space;;;0.4964054000447504;;;;;;8;;;001;;;2024-09-23_18h18.23.574;;;TEST_eye_tracker;;;2023.1.0;;;None;;;
962;;;C:\Users\lab_user\Desktop\LLM_Study\responses_files\prompt_962.xlsx;;;"Solve the equation:

x^2 + x + 3 = 0";;;962;;;962.1;;;"This quadratic equation has no real solutions. To see this, you can use the discriminant: b^2 - 4ac = 1^2 - 4(1)(3) = -11 Since the discriminant is negative, the solutions to the equation are not real numbers. Instead, they are complex numbers. Specifically, they are: x = (-1 ± sqrt(-11))/2 x = (-1 ± i*sqrt(11))/2 where i is the imaginary unit.";;;0;;;0;;;18;;;18;;;16;;;0;;;0;;;0;;;0;;;;;;;;;;;;;;;;;;;;;;;;;;;877.5875829999568;;;878.1333441999741;;;878.1333441999741;;;878.1333441999741;;;878.1333441999741;;;None;;;1;;;2.797618100012187;;;"Solve the equation:

x^2 + x + 3 = 0";;;"This quadratic equation has no real solutions. To see this, you can use the discriminant: b^2 - 4ac = 1^2 - 4(1)(3) = -11 Since the discriminant is negative, the solutions to the equation are not real numbers. Instead, they are complex numbers. Specifically, they are: x = (-1 ± sqrt(-11))/2 x = (-1 ± i*sqrt(11))/2 where i is the imaginary unit.";;;881.322099699988;;;882.3353573999484;;;space;;;17.24674769997364;;;899.9781650999794;;;899.9781650999794;;;899.9781650999794;;;899.9781650999794;;;903.4005535999895;;;903.4005535999895;;;space;;;0.5011272999690846;;;2;;;1.9584244000143372;;;3;;;2.823350600025151;;;5;;;3.3951296999584883;;;;;;;;;;;;;;;;;;;;;;;;;;;;;;;;;8;;;001;;;2024-09-23_18h18.23.574;;;TEST_eye_tracker;;;2023.1.0;;;None;;;
962;;;C:\Users\lab_user\Desktop\LLM_Study\responses_files\prompt_962.xlsx;;;"Solve the equation:

x^2 + x + 3 = 0";;;962;;;962.4;;;"First you need to rearrange the equation for x. In this case you need to use the pq formula. Then you will solve the equation. x² + x + 3 = 0 x = -1/2 ± √((1/2)²-3) x = -1/2 ± √(1/4-3) x = -1/2 ± √(-2.75) Since we cannot take the square root of negative numbers, your equation does not have a solution.";;;3;;;0;;;18;;;18;;;16;;;0;;;1;;;1;;;1;;;;;;;;;;;;;;;;;;;;;;;;;;;;;;;;;;;;;;;;;;;;;;;;;;;"Solve the equation:

x^2 + x + 3 = 0";;;"First you need to rearrange the equation for x. In this case you need to use the pq formula. Then you will solve the equation. x² + x + 3 = 0 x = -1/2 ± √((1/2)²-3) x = -1/2 ± √(1/4-3) x = -1/2 ± √(-2.75) Since we cannot take the square root of negative numbers, your equation does not have a solution.";;;903.9627959999489;;;904.9993088999763;;;space;;;19.22980249999091;;;924.6683378999587;;;924.6683378999587;;;924.6683378999587;;;924.6683378999587;;;932.4317786999745;;;932.4317786999745;;;space;;;0.24666950001847;;;3;;;1.6476988000213169;;;3;;;7.059617299993988;;;5;;;7.705912099976558;;;904.9993088999763;;;;;;;;;;;;;;;;;;;;;;;;;;;;;;8;;;001;;;2024-09-23_18h18.23.574;;;TEST_eye_tracker;;;2023.1.0;;;None;;;
962;;;C:\Users\lab_user\Desktop\LLM_Study\responses_files\prompt_962.xlsx;;;"Solve the equation:

x^2 + x + 3 = 0";;;;;;;;;0.888;;;;;;0;;;18;;;18;;;16;;;;;;;;;;;;;;;;;;;;;;;;;;;;;;;;;;;;;;;;;;;;;;;;;;;;;;;;;;;;;;;"Solve the equation:

x^2 + x + 3 = 0";;;0.888;;;;;;;;;;;;;;;;;;;;;;;;;;;;;;;;;;;;;;;;;;;;;;;;;;;;;;;;;;;;932.7581529999734;;;932.7581529999734;;;933.8871846999973;;;933.8871846999973;;;1;;;1.1117263000342064;;;space;;;0.3981356999720447;;;;;;8;;;001;;;2024-09-23_18h18.23.574;;;TEST_eye_tracker;;;2023.1.0;;;None;;;
986;;;C:\Users\lab_user\Desktop\LLM_Study\responses_files\prompt_986.xlsx;;;Can you explain me how Profile-guided optimization works and why it works?;;;986;;;986.1;;;"Profile-Guided Optimization (PGO) improves application performance by reorganizing code layout to reduce instruction-cache problems, shrinking code size, and reducing branch predictions. Profile-Guided Optimization PGO provides information to the compiler about areas of an application that are most frequently executed. Build the library/executable with instrumentation profile-generate to the compiler and linker. Collect profiles by running a representative workload on the instrumented binary.";;;1;;;0;;;19;;;19;;;40;;;0;;;0;;;0;;;0;;;;;;;;;;;;;;;;;;;;;;;;;;;934.3925315999659;;;934.927714999998;;;934.927714999998;;;934.927714999998;;;934.927714999998;;;None;;;1;;;7.135416099976283;;;Can you explain me how Profile-guided optimization works and why it works?;;;"Profile-Guided Optimization (PGO) improves application performance by reorganizing code layout to reduce instruction-cache problems, shrinking code size, and reducing branch predictions. Profile-Guided Optimization PGO provides information to the compiler about areas of an application that are most frequently executed. Build the library/executable with instrumentation profile-generate to the compiler and linker. Collect profiles by running a representative workload on the instrumented binary.";;;942.4202410999569;;;943.4326486999635;;;space;;;23.49449759995332;;;967.3467470000032;;;967.3467470000032;;;967.3467470000032;;;967.3467470000032;;;971.0644236999797;;;971.0644236999797;;;space;;;0.4046881999820471;;;3;;;1.8260120999766514;;;3;;;2.9749870999949053;;;5;;;3.7008929000003263;;;;;;;;;;;;;;;;;;;;;;;;;;;;;;;;;8;;;001;;;2024-09-23_18h18.23.574;;;TEST_eye_tracker;;;2023.1.0;;;None;;;
986;;;C:\Users\lab_user\Desktop\LLM_Study\responses_files\prompt_986.xlsx;;;Can you explain me how Profile-guided optimization works and why it works?;;;986;;;986.2;;;Profile guided optimization works by running the program and seeing which parts of the program take long and improving those parts. This works because it makes it so you only optimize the slow parts of the program which is were you will actually notice the speed ups in the program. Improving the fast parts of a program does not make it much faster.;;;2;;;0;;;19;;;19;;;40;;;0;;;1;;;1;;;1;;;;;;;;;;;;;;;;;;;;;;;;;;;;;;;;;;;;;;;;;;;;;;;;;;;Can you explain me how Profile-guided optimization works and why it works?;;;Profile guided optimization works by running the program and seeing which parts of the program take long and improving those parts. This works because it makes it so you only optimize the slow parts of the program which is were you will actually notice the speed ups in the program. Improving the fast parts of a program does not make it much faster.;;;971.5069152999786;;;972.520566799969;;;space;;;13.180778099980671;;;986.137462899962;;;986.137462899962;;;986.137462899962;;;986.137462899962;;;988.8473748999531;;;988.8473748999531;;;space;;;0.33376660000067204;;;4;;;1.0271061000530608;;;3;;;1.9795018999720924;;;5;;;2.6822233999846503;;;;;;;;;;;;;;;;;;;;;;;;;;;;;;;;;8;;;001;;;2024-09-23_18h18.23.574;;;TEST_eye_tracker;;;2023.1.0;;;None;;;
986;;;C:\Users\lab_user\Desktop\LLM_Study\responses_files\prompt_986.xlsx;;;Can you explain me how Profile-guided optimization works and why it works?;;;;;;;;;0.888;;;;;;0;;;19;;;19;;;40;;;;;;;;;;;;;;;;;;;;;;;;;;;;;;;;;;;;;;;;;;;;;;;;;;;;;;;;;;;;;;;Can you explain me how Profile-guided optimization works and why it works?;;;0.888;;;;;;;;;;;;;;;;;;;;;;;;;;;;;;;;;;;;;;;;;;;;;;;;;;;;;;;;;;;;989.2469090999803;;;989.2469090999803;;;990.4604358999641;;;990.4604358999641;;;2;;;1.1970943000051193;;;space;;;0.4246398000395857;;;;;;8;;;001;;;2024-09-23_18h18.23.574;;;TEST_eye_tracker;;;2023.1.0;;;None;;;
989;;;C:\Users\lab_user\Desktop\LLM_Study\responses_files\prompt_989.xlsx;;;Is Evolutionary Psychology an empirical science or is just people speculating about why humans are the way they are?;;;989;;;989.2;;;"Evolutionary Psychology is considered an empirical science because it is based on empirical evidence from various fields. In general, science involves generating hypotheses and conducting experiments and observations to test these hypotheses, so it would also be correct to say that Evolutionary Psychology is "just people speculating about why humans are the way they are", as long as these speculations are evidence based and testable.";;;2;;;0;;;20;;;20;;;43;;;0;;;0;;;0;;;1;;;;;;;;;;;;;;;;;;;;;;;;;;;990.9954668999999;;;991.5930613999953;;;991.5930613999953;;;991.5930613999953;;;991.5930613999953;;;None;;;1;;;6.415335999976378;;;Is Evolutionary Psychology an empirical science or is just people speculating about why humans are the way they are?;;;"Evolutionary Psychology is considered an empirical science because it is based on empirical evidence from various fields. In general, science involves generating hypotheses and conducting experiments and observations to test these hypotheses, so it would also be correct to say that Evolutionary Psychology is "just people speculating about why humans are the way they are", as long as these speculations are evidence based and testable.";;;998.3506116999779;;;999.3389820999582;;;space;;;19.01025390002178;;;1018.7996289999573;;;1018.7996289999573;;;1018.7996289999573;;;1018.7996289999573;;;1021.7513808999793;;;1021.7513808999793;;;space;;;0.39766939997207373;;;2;;;1.625661299971398;;;3;;;2.248550400021486;;;5;;;2.9340394000173546;;;;;;;;;;;;;;;;;;;;;;;;;;;;;;;;;8;;;001;;;2024-09-23_18h18.23.574;;;TEST_eye_tracker;;;2023.1.0;;;None;;;
989;;;C:\Users\lab_user\Desktop\LLM_Study\responses_files\prompt_989.xlsx;;;Is Evolutionary Psychology an empirical science or is just people speculating about why humans are the way they are?;;;989;;;989.1;;;"Evolutionary Psychology is a scientific discipline which seeks to explain human behavior by looking at the evolutionary forces which shaped it. It is an empirical science that utilizes data from a variety of sources, including psychology, anthropology, and biology, in order to develop theories and test hypotheses. While some aspects of evolutionary psychology may involve speculation, it is ultimately rooted in empirical research and evidence.";;;0;;;0;;;20;;;20;;;43;;;0;;;1;;;1;;;0;;;;;;;;;;;;;;;;;;;;;;;;;;;;;;;;;;;;;;;;;;;;;;;;;;;Is Evolutionary Psychology an empirical science or is just people speculating about why humans are the way they are?;;;"Evolutionary Psychology is a scientific discipline which seeks to explain human behavior by looking at the evolutionary forces which shaped it. It is an empirical science that utilizes data from a variety of sources, including psychology, anthropology, and biology, in order to develop theories and test hypotheses. While some aspects of evolutionary psychology may involve speculation, it is ultimately rooted in empirical research and evidence.";;;1022.2207770999521;;;1023.2170236999518;;;space;;;20.724488700041547;;;1044.4030127999722;;;1044.4030127999722;;;1044.4030127999722;;;1044.4030127999722;;;1047.793571199989;;;1047.793571199989;;;space;;;0.7873724999953993;;;4;;;1.5093397000455298;;;3;;;2.5173800000338815;;;5;;;3.3797181000118144;;;;;;;;;;;;;;;;;;;;;;;;;;;;;;;;;8;;;001;;;2024-09-23_18h18.23.574;;;TEST_eye_tracker;;;2023.1.0;;;None;;;
989;;;C:\Users\lab_user\Desktop\LLM_Study\responses_files\prompt_989.xlsx;;;Is Evolutionary Psychology an empirical science or is just people speculating about why humans are the way they are?;;;;;;;;;0.888;;;;;;0;;;20;;;20;;;43;;;;;;;;;;;;;;;;;;;;;;;;;;;;;;;;;;;;;;;;;;;;;;;;;;;;;;;;;;;;;;;Is Evolutionary Psychology an empirical science or is just people speculating about why humans are the way they are?;;;0.888;;;;;;;;;;;;;;;;;;;;;;;;;;;;;;;;;;;;;;;;;;;;;;;;;;;;;;;;;;;;1048.6474657999934;;;1048.6474657999934;;;1049.9338804999716;;;1049.9338804999716;;;2;;;1.2648896999889985;;;space;;;0.4489387999637984;;;;;;8;;;001;;;2024-09-23_18h18.23.574;;;TEST_eye_tracker;;;2023.1.0;;;None;;;
972;;;C:\Users\lab_user\Desktop\LLM_Study\responses_files\prompt_972.xlsx;;;Hello;;;972;;;972.3;;;"Hi there, how are you doing?";;;2;;;0;;;21;;;21;;;26;;;0;;;0;;;0;;;1;;;;;;;;;;;;;;;;;;;;;;;;;;;1050.5063355999882;;;1051.042848299956;;;1051.042848299956;;;1051.042848299956;;;1051.042848299956;;;None;;;1;;;2.1984792000148445;;;Hello;;;"Hi there, how are you doing?";;;1053.6008555999724;;;1054.5798949999735;;;space;;;2.241660400002729;;;1057.2098594999989;;;1057.2098594999989;;;1057.2098594999989;;;1057.2098594999989;;;1061.6896086999914;;;1061.6896086999914;;;space;;;0.8273616000078619;;;4;;;3.668088100035675;;;4;;;1.7424987999838777;;;5;;;4.461595400003716;;;;;;;;;;;;;;;;;;;;;;;;;;;;;;;;;8;;;001;;;2024-09-23_18h18.23.574;;;TEST_eye_tracker;;;2023.1.0;;;None;;;
972;;;C:\Users\lab_user\Desktop\LLM_Study\responses_files\prompt_972.xlsx;;;Hello;;;972;;;972.1;;;"Hi, how can I help you today ?";;;0;;;0;;;21;;;21;;;26;;;0;;;1;;;1;;;0;;;;;;;;;;;;;;;;;;;;;;;;;;;;;;;;;;;;;;;;;;;;;;;;;;;Hello;;;"Hi, how can I help you today ?";;;1062.5555687999586;;;1063.5740124000004;;;space;;;2.3438065000227652;;;1066.3215619999683;;;1066.3215619999683;;;1066.3215619999683;;;1066.3215619999683;;;1071.6233120999532;;;1071.6233120999532;;;space;;;5.326284799957648;;;4;;;3.771661100035999;;;4;;;9.074817799963057;;;5;;;5.330998899997212;;;;;;;;;;;;;;;;;;;;;;;;;;;;;;;;;8;;;001;;;2024-09-23_18h18.23.574;;;TEST_eye_tracker;;;2023.1.0;;;None;;;
972;;;C:\Users\lab_user\Desktop\LLM_Study\responses_files\prompt_972.xlsx;;;Hello;;;;;;;;;0.888;;;;;;0;;;21;;;21;;;26;;;;;;;;;;;;;;;;;;;;;;;;;;;;;;;;;;;;;;;;;;;;;;;;;;;;;;;;;;;;;;;Hello;;;0.888;;;;;;;;;;;;;;;;;;;;;;;;;;;;;;;;;;;;;;;;;;;;;;;;;;;;;;;;;;;;1077.032319299993;;;1077.032319299993;;;1082.2517876999918;;;1082.2517876999918;;;1;;;5.211162800027523;;;space;;;0.5055651000002399;;;;;;8;;;001;;;2024-09-23_18h18.23.574;;;TEST_eye_tracker;;;2023.1.0;;;None;;;
975;;;C:\Users\lab_user\Desktop\LLM_Study\responses_files\prompt_975.xlsx;;;Write an objective for a computer engineering student to out in his resume.;;;975;;;975.1;;;"Objective: To obtain a challenging position as a Computer Engineering professional in a dynamic organization, where I can utilize my technical skills, creative problem-solving abilities, and teamwork expertise to contribute to the growth and success of the company while continuously learning and developing my skills.";;;0;;;0;;;22;;;22;;;29;;;0;;;0;;;0;;;0;;;;;;;;;;;;;;;;;;;;;;;;;;;1082.8647139999666;;;1083.3949670000002;;;1083.3949670000002;;;1083.3949670000002;;;1083.3949670000002;;;None;;;1;;;6.456597200012766;;;Write an objective for a computer engineering student to out in his resume.;;;"Objective: To obtain a challenging position as a Computer Engineering professional in a dynamic organization, where I can utilize my technical skills, creative problem-solving abilities, and teamwork expertise to contribute to the growth and success of the company while continuously learning and developing my skills.";;;1090.230147299997;;;1091.2424756999826;;;space;;;10.139021299954038;;;1101.793443100003;;;1101.793443100003;;;1101.793443100003;;;1101.793443100003;;;1108.84328869998;;;1108.84328869998;;;space;;;0.4502090000314638;;;4;;;3.0739364000037313;;;3;;;6.245617400039919;;;5;;;7.038897400023416;;;;;;;;;;;;;;;;;;;;;;;;;;;;;;;;;8;;;001;;;2024-09-23_18h18.23.574;;;TEST_eye_tracker;;;2023.1.0;;;None;;;
975;;;C:\Users\lab_user\Desktop\LLM_Study\responses_files\prompt_975.xlsx;;;Write an objective for a computer engineering student to out in his resume.;;;975;;;975.3;;;"Here are some great objectives and goals a computer engineering student could put in their resume: - Aiming to help [company] produce cutting edge hardware. - Objective: To improve [company]'s RISC processor efficiency. - Goal: Learn the skills to become an asset to [company] Let me know if you were referring to computer software engineering rather than hardware engineering, and I'll update my suggestion.";;;2;;;0;;;22;;;22;;;29;;;0;;;1;;;1;;;1;;;;;;;;;;;;;;;;;;;;;;;;;;;;;;;;;;;;;;;;;;;;;;;;;;;Write an objective for a computer engineering student to out in his resume.;;;"Here are some great objectives and goals a computer engineering student could put in their resume: - Aiming to help [company] produce cutting edge hardware. - Objective: To improve [company]'s RISC processor efficiency. - Goal: Learn the skills to become an asset to [company] Let me know if you were referring to computer software engineering rather than hardware engineering, and I'll update my suggestion.";;;1109.3224094999605;;;1110.3459542999626;;;space;;;24.65955570002552;;;1135.4627154999762;;;1135.4627154999762;;;1135.4627154999762;;;1135.4627154999762;;;1138.6728345999727;;;1138.6728345999727;;;space;;;0.43582640000386164;;;4;;;1.4568674999754876;;;3;;;2.520730199990794;;;5;;;3.1913893000455573;;;;;;;;;;;;;;;;;;;;;;;;;;;;;;;;;8;;;001;;;2024-09-23_18h18.23.574;;;TEST_eye_tracker;;;2023.1.0;;;None;;;
975;;;C:\Users\lab_user\Desktop\LLM_Study\responses_files\prompt_975.xlsx;;;Write an objective for a computer engineering student to out in his resume.;;;;;;;;;0.888;;;;;;0;;;22;;;22;;;29;;;;;;;;;;;;;;;;;;;;;;;;;;;;;;;;;;;;;;;;;;;;;;;;;;;;;;;;;;;;;;;Write an objective for a computer engineering student to out in his resume.;;;0.888;;;;;;;;;;;;;;;;;;;;;;;;;;;;;;;;;;;;;;;;;;;;;;;;;;;;;;;;;;;;1139.178077599965;;;1139.178077599965;;;1140.9615474999882;;;1140.9615474999882;;;2;;;1.7336934999912046;;;space;;;0.3631493999855593;;;;;;8;;;001;;;2024-09-23_18h18.23.574;;;TEST_eye_tracker;;;2023.1.0;;;None;;;
965;;;C:\Users\lab_user\Desktop\LLM_Study\responses_files\prompt_965.xlsx;;;Could you put in laymen terms the terms of service for the open assistant project?;;;965;;;965.1;;;"The project has just started and is still under development so there is no TOS published yet. However, it does have guidelines on the site in plain language. [1] [1] https://projects.laion.ai/Open-Assistant/docs/guides/guidelines";;;1;;;0;;;23;;;23;;;19;;;0;;;0;;;0;;;0;;;;;;;;;;;;;;;;;;;;;;;;;;;1141.4711587999482;;;1141.9922974999645;;;1141.9922974999645;;;1141.9922974999645;;;1141.9922974999645;;;None;;;1;;;7.131362099957187;;;Could you put in laymen terms the terms of service for the open assistant project?;;;"The project has just started and is still under development so there is no TOS published yet. However, it does have guidelines on the site in plain language. [1] [1] https://projects.laion.ai/Open-Assistant/docs/guides/guidelines";;;1149.4987126999767;;;1150.4987512999796;;;space;;;12.546901899972;;;1163.4498478999594;;;1163.4498478999594;;;1163.4498478999594;;;1163.4498478999594;;;1169.9495365999755;;;1169.9495365999755;;;space;;;0.5594468000344932;;;3;;;3.6434316000086255;;;3;;;5.734943500021473;;;5;;;6.481744399992749;;;;;;;;;;;;;;;;;;;;;;;;;;;;;;;;;8;;;001;;;2024-09-23_18h18.23.574;;;TEST_eye_tracker;;;2023.1.0;;;None;;;
965;;;C:\Users\lab_user\Desktop\LLM_Study\responses_files\prompt_965.xlsx;;;Could you put in laymen terms the terms of service for the open assistant project?;;;965;;;965.2;;;"I am sory, but I don't know the terms of service of the open assistant project. Could ypu send them rom se so that I'll be able to put them in laymen terms?";;;2;;;0;;;23;;;23;;;19;;;0;;;1;;;1;;;1;;;;;;;;;;;;;;;;;;;;;;;;;;;;;;;;;;;;;;;;;;;;;;;;;;;Could you put in laymen terms the terms of service for the open assistant project?;;;"I am sory, but I don't know the terms of service of the open assistant project. Could ypu send them rom se so that I'll be able to put them in laymen terms?";;;1170.5479315999546;;;1171.550796399999;;;space;;;5.358663899998646;;;1177.3473531999625;;;1177.3473531999625;;;1177.3473531999625;;;1177.3473531999625;;;1184.2879886999726;;;1184.2879886999726;;;space;;;0.42938990000402555;;;1;;;2.21038539998699;;;4;;;6.213450899987947;;;5;;;6.911853199999314;;;;;;;;;;;;;;;;;;;;;;;;;;;;;;;;;8;;;001;;;2024-09-23_18h18.23.574;;;TEST_eye_tracker;;;2023.1.0;;;None;;;
965;;;C:\Users\lab_user\Desktop\LLM_Study\responses_files\prompt_965.xlsx;;;Could you put in laymen terms the terms of service for the open assistant project?;;;;;;;;;0.888;;;;;;0;;;23;;;23;;;19;;;;;;;;;;;;;;;;;;;;;;;;;;;;;;;;;;;;;;;;;;;;;;;;;;;;;;;;;;;;;;;Could you put in laymen terms the terms of service for the open assistant project?;;;0.888;;;;;;;;;;;;;;;;;;;;;;;;;;;;;;;;;;;;;;;;;;;;;;;;;;;;;;;;;;;;1184.8017547999625;;;1184.8017547999625;;;1186.232231699978;;;1186.232231699978;;;1;;;1.3858763999887742;;;space;;;0.42079990002093837;;;;;;8;;;001;;;2024-09-23_18h18.23.574;;;TEST_eye_tracker;;;2023.1.0;;;None;;;
984;;;C:\Users\lab_user\Desktop\LLM_Study\responses_files\prompt_984.xlsx;;;can you please write me a sketch comedy script about a group of protestors that are confused? i.e "WHAT DO WE WANT?!" and "WHEN DO WE WANT IT?!";;;984;;;984.1;;;"Sure! Here’s a short sketch comedy script for you: Protestors: (Chanting) “WHAT DO WE WANT?!” Protestor 1: Wait… what do we want again? Protestor 2: I don’t know. I thought you knew. Protestor 3: I thought we were protesting for more cowbell. Protestor 4: No, no, no. We’re protesting for free pizza on Fridays. Protestors: (Chanting) “FREE PIZZA ON FRIDAYS!” Protestor 5: Hold on. I thought we were protesting against pineapple on pizza. Protestors: (Confused murmuring) Protestor 6: (Shouting) “WHEN DO WE WANT IT?!” Protestors: (Shouting in unison) “NOW!” Protestor 7: Wait… what do we want now? I hope this helps! 😊";;;1;;;0;;;24;;;24;;;38;;;0;;;0;;;0;;;0;;;;;;;;;;;;;;;;;;;;;;;;;;;1186.7731979999808;;;1187.358020899992;;;1187.358020899992;;;1187.358020899992;;;1187.358020899992;;;None;;;1;;;7.857462000043597;;;can you please write me a sketch comedy script about a group of protestors that are confused? i.e "WHAT DO WE WANT?!" and "WHEN DO WE WANT IT?!";;;"Sure! Here’s a short sketch comedy script for you: Protestors: (Chanting) “WHAT DO WE WANT?!” Protestor 1: Wait… what do we want again? Protestor 2: I don’t know. I thought you knew. Protestor 3: I thought we were protesting for more cowbell. Protestor 4: No, no, no. We’re protesting for free pizza on Fridays. Protestors: (Chanting) “FREE PIZZA ON FRIDAYS!” Protestor 5: Hold on. I thought we were protesting against pineapple on pizza. Protestors: (Confused murmuring) Protestor 6: (Shouting) “WHEN DO WE WANT IT?!” Protestors: (Shouting in unison) “NOW!” Protestor 7: Wait… what do we want now? I hope this helps! 😊";;;1195.5788621999673;;;1196.671018699999;;;space;;;22.50221559999045;;;1219.62340339995;;;1219.62340339995;;;1219.62340339995;;;1219.62340339995;;;1224.9357370999642;;;1224.9357370999642;;;space;;;0.4209909000201151;;;4;;;4.121555099962279;;;4;;;2.3903376000234857;;;5;;;5.30654829996638;;;;;;;;;;;;;;;;;;;;;;;;;;;;;;;;;8;;;001;;;2024-09-23_18h18.23.574;;;TEST_eye_tracker;;;2023.1.0;;;None;;;
984;;;C:\Users\lab_user\Desktop\LLM_Study\responses_files\prompt_984.xlsx;;;can you please write me a sketch comedy script about a group of protestors that are confused? i.e "WHAT DO WE WANT?!" and "WHEN DO WE WANT IT?!";;;984;;;984.2;;;"WHAT DO WE WANT?!" "TO KNOW WHAT WE ARE PROTESTING ABOUT!" "WHEN DO WE WANT IT?!" "HOPEFULLY SOMETIMES IN THE NEAR FUTURE! WE THINK ALL OF US COLLECTIVELY LEFT THE STOVE ON AT OUR HOUSE!";;;2;;;0;;;24;;;24;;;38;;;0;;;1;;;1;;;1;;;;;;;;;;;;;;;;;;;;;;;;;;;;;;;;;;;;;;;;;;;;;;;;;;;can you please write me a sketch comedy script about a group of protestors that are confused? i.e "WHAT DO WE WANT?!" and "WHEN DO WE WANT IT?!";;;"WHAT DO WE WANT?!" "TO KNOW WHAT WE ARE PROTESTING ABOUT!" "WHEN DO WE WANT IT?!" "HOPEFULLY SOMETIMES IN THE NEAR FUTURE! WE THINK ALL OF US COLLECTIVELY LEFT THE STOVE ON AT OUR HOUSE!";;;1225.4105785999564;;;1226.4365058999974;;;space;;;3.9843987000058405;;;1230.84863709996;;;1230.84863709996;;;1230.84863709996;;;1230.84863709996;;;1234.5086086999509;;;1234.5086086999509;;;space;;;1.4721503999899141;;;2;;;1.460424699995201;;;2;;;2.2128273000125773;;;5;;;3.6404769999790005;;;;;;;;;;;;;;;;;;;;;;;;;;;;;;;;;8;;;001;;;2024-09-23_18h18.23.574;;;TEST_eye_tracker;;;2023.1.0;;;None;;;
984;;;C:\Users\lab_user\Desktop\LLM_Study\responses_files\prompt_984.xlsx;;;can you please write me a sketch comedy script about a group of protestors that are confused? i.e "WHAT DO WE WANT?!" and "WHEN DO WE WANT IT?!";;;;;;;;;0.888;;;;;;0;;;24;;;24;;;38;;;;;;;;;;;;;;;;;;;;;;;;;;;;;;;;;;;;;;;;;;;;;;;;;;;;;;;;;;;;;;;can you please write me a sketch comedy script about a group of protestors that are confused? i.e "WHAT DO WE WANT?!" and "WHEN DO WE WANT IT?!";;;0.888;;;;;;;;;;;;;;;;;;;;;;;;;;;;;;;;;;;;;;;;;;;;;;;;;;;;;;;;;;;;1236.044752799964;;;1236.044752799964;;;1237.669320599991;;;1237.669320599991;;;1;;;1.6085618000361137;;;space;;;0.48121689999243245;;;;;;8;;;001;;;2024-09-23_18h18.23.574;;;TEST_eye_tracker;;;2023.1.0;;;None;;;
980;;;C:\Users\lab_user\Desktop\LLM_Study\responses_files\prompt_980.xlsx;;;Can you explain to me what USAR is?;;;980;;;980.1;;;"USAR stands for Urban Search and Rescue. It is a type of emergency response that involves search, rescue, and medical treatment of people trapped in collapsed structures or other hazardous environments. USAR teams are typically made up of local and state firefighters, as well as members of police, medical, and military personnel. USAR teams are trained to respond to disasters such as earthquakes, floods, and terrorist attacks. They use specialized tools and techniques to search and rescue victims trapped in collapsed buildings or other hazardous environments.";;;1;;;0;;;25;;;25;;;34;;;0;;;0;;;0;;;0;;;;;;;;;;;;;;;;;;;;;;;;;;;1238.2917397999554;;;1238.8596208999516;;;1238.8596208999516;;;1238.8596208999516;;;1238.8596208999516;;;None;;;2;;;4.18182140000863;;;Can you explain to me what USAR is?;;;"USAR stands for Urban Search and Rescue. It is a type of emergency response that involves search, rescue, and medical treatment of people trapped in collapsed structures or other hazardous environments. USAR teams are typically made up of local and state firefighters, as well as members of police, medical, and military personnel. USAR teams are trained to respond to disasters such as earthquakes, floods, and terrorist attacks. They use specialized tools and techniques to search and rescue victims trapped in collapsed buildings or other hazardous environments.";;;1243.0841361999628;;;;;;None;;;;;;;;;;;;;;;;;;;;;;;;None;;;;;;None;;;None;;;None;;;None;;;None;;;None;;;;;;;;;;;;;;;;;;;;;;;;;;;;;;;;;8;;;001;;;2024-09-23_18h18.23.574;;;TEST_eye_tracker;;;2023.1.0;;;None;;;
980;;;C:\Users\lab_user\Desktop\LLM_Study\responses_files\prompt_980.xlsx;;;Can you explain to me what USAR is?;;;980;;;980.2;;;"USAR stands for Urban Search and Rescue. It is a type of specialized emergency response team that is trained to handle complex search and rescue operations in urban or heavily populated areas. These teams are typically composed of firefighters, police officers, medical professionals, and other emergency responders who have undergone extensive training in search and rescue techniques.";;;2;;;0;;;25;;;25;;;34;;;0;;;1;;;1;;;1;;;;;;;;;;;;;;;;;;;;;;;;;;;;;;;;;;;;;;;;;;;;;;;;;;;Can you explain to me what USAR is?;;;"USAR stands for Urban Search and Rescue. It is a type of specialized emergency response team that is trained to handle complex search and rescue operations in urban or heavily populated areas. These teams are typically composed of firefighters, police officers, medical professionals, and other emergency responders who have undergone extensive training in search and rescue techniques.";;;1244.1356571999495;;;;;;None;;;;;;;;;;;;;;;;;;;;;;;;None;;;;;;None;;;None;;;None;;;None;;;None;;;None;;;;;;;;;;;;;;;;;;;;;;;;;;;;;;;;;8;;;001;;;2024-09-23_18h18.23.574;;;TEST_eye_tracker;;;2023.1.0;;;None;;;
980;;;C:\Users\lab_user\Desktop\LLM_Study\responses_files\prompt_980.xlsx;;;Can you explain to me what USAR is?;;;;;;;;;0.888;;;;;;0;;;25;;;25;;;34;;;;;;;;;;;;;;;;;;;;;;;;;;;;;;;;;;;;;;;;;;;;;;;;;;;;;;;;;;;;;;;Can you explain to me what USAR is?;;;0.888;;;;;;;;;;;;;;;;;;;;;;;;;;;;;;;;;;;;;;;;;;;;;;;;;;;;;;;;;;;;;;;;;;;;;;;;None;;;None;;;None;;;;;;;;;8;;;001;;;2024-09-23_18h18.23.574;;;TEST_eye_tracker;;;2023.1.0;;;None;;;
978;;;C:\Users\lab_user\Desktop\LLM_Study\responses_files\prompt_978.xlsx;;;Explain how neural networks work in Layman's terms;;;978;;;978.1;;;"A neural network is a computer program designed to mimic how the human brain works—made of many small, simple units called artificial neurons that are connected and work together to perform complex tasks. These neurons receive input, process it using mathematical functions, and then pass on the result to other neurons in the network. Training a neural network with a large amount of data can learn to recognize patterns and make decisions based on the inputs it receives. The more data it's exposed to and the more it trains, the better it becomes at making accurate predictions and decisions. In Summary, A neural network is a highly sophisticated decision-making machine that can learn and improve over time.";;;0;;;0;;;26;;;26;;;32;;;0;;;0;;;0;;;0;;;;;;;;;;;;;;;;;;;;;;;;;;;1245.3119704999845;;;1245.836273199995;;;1245.836273199995;;;1245.836273199995;;;1245.836273199995;;;None;;;1;;;4.741611399978865;;;Explain how neural networks work in Layman's terms;;;"A neural network is a computer program designed to mimic how the human brain works—made of many small, simple units called artificial neurons that are connected and work together to perform complex tasks. These neurons receive input, process it using mathematical functions, and then pass on the result to other neurons in the network. Training a neural network with a large amount of data can learn to recognize patterns and make decisions based on the inputs it receives. The more data it's exposed to and the more it trains, the better it becomes at making accurate predictions and decisions. In Summary, A neural network is a highly sophisticated decision-making machine that can learn and improve over time.";;;1250.9388908999972;;;1251.9933908999665;;;space;;;23.940145200002007;;;1276.4135299999616;;;1276.4135299999616;;;1276.4135299999616;;;1276.4135299999616;;;1278.983087999979;;;1278.983087999979;;;space;;;0.3655883999890648;;;5;;;1.1764014000073075;;;3;;;1.8554437000420876;;;5;;;2.586064899980556;;;;;;;;;;;;;;;;;;;;;;;;;;;;;;;;;8;;;001;;;2024-09-23_18h18.23.574;;;TEST_eye_tracker;;;2023.1.0;;;None;;;
978;;;C:\Users\lab_user\Desktop\LLM_Study\responses_files\prompt_978.xlsx;;;Explain how neural networks work in Layman's terms;;;978;;;978.2;;;"The human brain is the inspiration behind neural network architecture. Human brain cells, called neurons, form a complex, highly interconnected network and send electrical signals to each other to help humans process information. Similarly, an artificial neural network is made of artificial neurons that work together to solve a problem. Artificial neurons are software modules, called nodes, and artificial neural networks are software programs or algorithms that, at their core, use computing systems to solve mathematical calculations. Source: https://aws.amazon.com/what-is/neural-network/ Do you want go deeper into how neural networks work? Next step is to understand how they train using data.";;;1;;;0;;;26;;;26;;;32;;;0;;;1;;;1;;;1;;;;;;;;;;;;;;;;;;;;;;;;;;;;;;;;;;;;;;;;;;;;;;;;;;;Explain how neural networks work in Layman's terms;;;"The human brain is the inspiration behind neural network architecture. Human brain cells, called neurons, form a complex, highly interconnected network and send electrical signals to each other to help humans process information. Similarly, an artificial neural network is made of artificial neurons that work together to solve a problem. Artificial neurons are software modules, called nodes, and artificial neural networks are software programs or algorithms that, at their core, use computing systems to solve mathematical calculations. Source: https://aws.amazon.com/what-is/neural-network/ Do you want go deeper into how neural networks work? Next step is to understand how they train using data.";;;1279.3959415999707;;;1280.408309099963;;;space;;;19.076427899999544;;;1299.9387481999584;;;1299.9387481999584;;;1299.9387481999584;;;1299.9387481999584;;;1306.7303952999646;;;1306.7303952999646;;;space;;;0.4508227000478655;;;3;;;4.946699099964462;;;3;;;5.925223500002176;;;5;;;6.763219199958257;;;1280.408309099963;;;;;;;;;;;;;;;;;;;;;;;;;;;;;;8;;;001;;;2024-09-23_18h18.23.574;;;TEST_eye_tracker;;;2023.1.0;;;None;;;
978;;;C:\Users\lab_user\Desktop\LLM_Study\responses_files\prompt_978.xlsx;;;Explain how neural networks work in Layman's terms;;;;;;;;;0.888;;;;;;0;;;26;;;26;;;32;;;;;;;;;;;;;;;;;;;;;;;;;;;;;;;;;;;;;;;;;;;;;;;;;;;;;;;;;;;;;;;Explain how neural networks work in Layman's terms;;;0.888;;;;;;;;;;;;;;;;;;;;;;;;;;;;;;;;;;;;;;;;;;;;;;;;;;;;;;;;;;;;1307.2599435999873;;;1307.2599435999873;;;1309.3185793999583;;;1309.3185793999583;;;1;;;2.0348780999775045;;;space;;;0.454257300007157;;;;;;8;;;001;;;2024-09-23_18h18.23.574;;;TEST_eye_tracker;;;2023.1.0;;;None;;;
