n_prompt;;;prompt_file;;;prompt_text;;;related_prompt;;;n_resp;;;resp_text;;;rank;;;Trial.thisRepN;;;Trial.thisTrialN;;;Trial.thisN;;;Trial.thisIndex;;;per_answer.thisRepN;;;per_answer.thisTrialN;;;per_answer.thisN;;;per_answer.thisIndex;;;key_resp_5.started;;;textbox.started;;;key_resp_5.keys;;;key_resp_5.rt;;;textbox_2.started;;;key_resp_8.started;;;key_resp_8.keys;;;key_resp_8.rt;;;text.started;;;Prompt_.started;;;key_resp_4.started;;;slider_skip.started;;;text_4.started;;;key_resp_4.keys;;;slider_skip.response;;;slider_skip.rt;;;prompt_text;;;resp_text;;;cross_white.started;;;key_resp_2.started;;;key_resp_2.keys;;;key_resp_2.rt;;;question_useful_2.started;;;quality.started;;;rude_polite.started;;;ViolentHarmless.started;;;key_resp_6.started;;;press_space.started;;;key_resp_6.keys;;;key_resp_6.rt;;;quality.response;;;quality.rt;;;rude_polite.response;;;rude_polite.rt;;;ViolentHarmless.response;;;ViolentHarmless.rt;;;question_ranking.started;;;ranking_better.started;;;key_resp_7.started;;;text_2.started;;;ranking_better.response;;;ranking_better.rt;;;key_resp_7.keys;;;key_resp_7.rt;;;cross_white.stopped;;;text.stopped;;;participant;;;session;;;date;;;expName;;;psychopyVersion;;;frameRate;;;
;;;;;;;;;;;;;;;;;;;;;;;;;;;;;;;;;;;;;;;;;;;;;16.701497599991853;;;16.701497599991853;;;space;;;102.57220439999946;;;;;;;;;;;;;;;;;;;;;;;;;;;;;;;;;;;;;;;;;;;;;;;;;;;;;;;;;;;;;;;;;;;;;;;;;;;;;;;;;;;;;;;;;;;;;;;;;;;;;;;;;;;;;;;;;;;;;;;;;;;;;;;;;7;;;001;;;2024-10-09_16h24.33.695;;;TEST_eye_tracker;;;2023.1.0;;;None;;;
;;;;;;;;;;;;;;;;;;;;;;;;;;;;;;;;;;;;;;;;;;;;;;;;;;;;;;;;;119.30836419999832;;;119.30836419999832;;;space;;;46.41339449999214;;;;;;;;;;;;;;;;;;;;;;;;;;;;;;;;;;;;;;;;;;;;;;;;;;;;;;;;;;;;;;;;;;;;;;;;;;;;;;;;;;;;;;;;;;;;;;;;;;;;;;;;;;;;;;;;;;;;;7;;;001;;;2024-10-09_16h24.33.695;;;TEST_eye_tracker;;;2023.1.0;;;None;;;
851;;;C:\Users\lab_user\Desktop\LLM_Study\responses_files\prompt_851.xlsx;;;How old are the earth?;;;851;;;851.1;;;"The age of the Earth is estimated to be approximately 4.54 billion years. This estimate is based on scientific measurements and analysis of rocks and meteorites, as well as calculations involving radioactive decay rates and other geological and astronomical data. The study of the Earth's history and the processes that have shaped our planet is known as geology, and it is an important field of scientific inquiry that helps us understand the origins and evolution of our world.";;;0;;;0;;;0;;;0;;;40;;;0;;;0;;;0;;;0;;;;;;;;;;;;;;;;;;;;;;;;;;;165.78075239999453;;;169.8765151999978;;;169.8765151999978;;;169.8765151999978;;;169.8765151999978;;;None;;;1;;;12.959930800003349;;;How old are the earth?;;;"The age of the Earth is estimated to be approximately 4.54 billion years. This estimate is based on scientific measurements and analysis of rocks and meteorites, as well as calculations involving radioactive decay rates and other geological and astronomical data. The study of the Earth's history and the processes that have shaped our planet is known as geology, and it is an important field of scientific inquiry that helps us understand the origins and evolution of our world.";;;183.07968969999638;;;184.1399773999874;;;space;;;21.717709100004868;;;207.2290357999882;;;207.2290357999882;;;207.2290357999882;;;207.2290357999882;;;237.92694919998758;;;237.92694919998758;;;space;;;1.0819396000006236;;;5;;;27.935956400004216;;;5;;;29.366984899999807;;;5;;;30.687838400001056;;;;;;;;;;;;;;;;;;;;;;;;;;;;;;;;;7;;;001;;;2024-10-09_16h24.33.695;;;TEST_eye_tracker;;;2023.1.0;;;None;;;
851;;;C:\Users\lab_user\Desktop\LLM_Study\responses_files\prompt_851.xlsx;;;How old are the earth?;;;851;;;851.3;;;"Well, no-one know's for sure, of course, but we have made some educated guesses! 4.543 billion years is the best estimate we have today! Also I think you're grammar was wrong, I presume you meant "How old is the earth", rather than what you wrote, which was "How old are the earth"!";;;2;;;0;;;0;;;0;;;40;;;0;;;1;;;1;;;1;;;;;;;;;;;;;;;;;;;;;;;;;;;;;;;;;;;;;;;;;;;;;;;;;;;How old are the earth?;;;"Well, no-one know's for sure, of course, but we have made some educated guesses! 4.543 billion years is the best estimate we have today! Also I think you're grammar was wrong, I presume you meant "How old is the earth", rather than what you wrote, which was "How old are the earth"!";;;239.03962929999398;;;240.07161899999483;;;space;;;12.962269199997536;;;253.32905919999757;;;253.32905919999757;;;253.32905919999757;;;253.32905919999757;;;270.7499567999912;;;270.7499567999912;;;space;;;0.8826533000101335;;;4;;;5.2961763000057545;;;2;;;14.66737870000361;;;5;;;17.391037299996242;;;;;;;;;;;;;;;;;;;;;;;;;;;;;;;;;7;;;001;;;2024-10-09_16h24.33.695;;;TEST_eye_tracker;;;2023.1.0;;;None;;;
851;;;C:\Users\lab_user\Desktop\LLM_Study\responses_files\prompt_851.xlsx;;;How old are the earth?;;;;;;;;;0.888;;;;;;0;;;0;;;0;;;40;;;;;;;;;;;;;;;;;;;;;;;;;;;;;;;;;;;;;;;;;;;;;;;;;;;;;;;;;;;;;;;How old are the earth?;;;0.888;;;;;;;;;;;;;;;;;;;;;;;;;;;;;;;;;;;;;;;;;;;;;;;;;;;;;;;;;271.68395779999264;;;271.68395779999264;;;275.4208196999971;;;275.4208196999971;;;1;;;3.723992499988526;;;space;;;1.0442440000042552;;;;;;;;;7;;;001;;;2024-10-09_16h24.33.695;;;TEST_eye_tracker;;;2023.1.0;;;None;;;
818;;;C:\Users\lab_user\Desktop\LLM_Study\responses_files\prompt_818.xlsx;;;What is the molecular biological process of the appearance of consciousness;;;818;;;818.2;;;"The concept of "consciousness" is not yet well understood. In fact, it has not even been agreed upon a clear definition. Thus, it is hard to say what leads to the appearance of consciousness. However, consciousness is part of cognition and therefore likely has its origin in the brain. Therefore, if there is a molecular basis, it is probably one found in the brain. Would you like to know more about the basics of how the brain works?";;;2;;;0;;;1;;;1;;;7;;;0;;;0;;;0;;;1;;;;;;;;;;;;;;;;;;;;;;;;;;;276.5916416999971;;;277.09974439999496;;;277.09974439999496;;;277.09974439999496;;;277.09974439999496;;;None;;;1;;;12.290196000001743;;;What is the molecular biological process of the appearance of consciousness;;;"The concept of "consciousness" is not yet well understood. In fact, it has not even been agreed upon a clear definition. Thus, it is hard to say what leads to the appearance of consciousness. However, consciousness is part of cognition and therefore likely has its origin in the brain. Therefore, if there is a molecular basis, it is probably one found in the brain. Would you like to know more about the basics of how the brain works?";;;289.6423541999975;;;290.65708249999443;;;space;;;17.609463600005256;;;308.5536175999878;;;308.5536175999878;;;308.5536175999878;;;308.5536175999878;;;313.95229370000015;;;313.95229370000015;;;space;;;0.6730733999866061;;;5;;;3.2488271000038367;;;5;;;4.3472263000003295;;;5;;;5.400814699998591;;;;;;;;;;;;;;;;;;;;;;;;;;;;;;;;;7;;;001;;;2024-10-09_16h24.33.695;;;TEST_eye_tracker;;;2023.1.0;;;None;;;
818;;;C:\Users\lab_user\Desktop\LLM_Study\responses_files\prompt_818.xlsx;;;What is the molecular biological process of the appearance of consciousness;;;818;;;818.1;;;"The molecular biological process of the appearance of consciousness is not fully understood, but it is generally believed that it involves the activity of neurons and synapses in the cerebral cortex, especially in a posterior-cortical ‘hot zone’ that is responsible for integrating sensory information. Consciousness also depends on how different brain regions communicate with each other and how they are influenced by attention, memory, emotions, and other factors. A relatable example of consciousness is when you are aware of your surroundings, your thoughts, your feelings, and your sense of self. You can also experience different levels of consciousness depending on your state of wakefulness, sleep, or dreaming.";;;1;;;0;;;1;;;1;;;7;;;0;;;1;;;1;;;0;;;;;;;;;;;;;;;;;;;;;;;;;;;;;;;;;;;;;;;;;;;;;;;;;;;What is the molecular biological process of the appearance of consciousness;;;"The molecular biological process of the appearance of consciousness is not fully understood, but it is generally believed that it involves the activity of neurons and synapses in the cerebral cortex, especially in a posterior-cortical ‘hot zone’ that is responsible for integrating sensory information. Consciousness also depends on how different brain regions communicate with each other and how they are influenced by attention, memory, emotions, and other factors. A relatable example of consciousness is when you are aware of your surroundings, your thoughts, your feelings, and your sense of self. You can also experience different levels of consciousness depending on your state of wakefulness, sleep, or dreaming.";;;314.6694940999878;;;315.6875994000002;;;space;;;24.042648300004657;;;340.02947459999996;;;340.02947459999996;;;340.02947459999996;;;340.02947459999996;;;344.30313619998924;;;344.30313619998924;;;space;;;0.666328599996632;;;4;;;2.085489199991571;;;5;;;3.4515395000053104;;;5;;;4.256729600005201;;;;;;;;;;;;;;;;;;;;;;;;;;;;;;;;;7;;;001;;;2024-10-09_16h24.33.695;;;TEST_eye_tracker;;;2023.1.0;;;None;;;
818;;;C:\Users\lab_user\Desktop\LLM_Study\responses_files\prompt_818.xlsx;;;What is the molecular biological process of the appearance of consciousness;;;;;;;;;0.888;;;;;;0;;;1;;;1;;;7;;;;;;;;;;;;;;;;;;;;;;;;;;;;;;;;;;;;;;;;;;;;;;;;;;;;;;;;;;;;;;;What is the molecular biological process of the appearance of consciousness;;;0.888;;;;;;;;;;;;;;;;;;;;;;;;;;;;;;;;;;;;;;;;;;;;;;;;;;;;;;;;;345.0007532000018;;;345.0007532000018;;;347.7734186999878;;;347.7734186999878;;;1;;;2.753249200002756;;;space;;;0.7958794000005582;;;;;;;;;7;;;001;;;2024-10-09_16h24.33.695;;;TEST_eye_tracker;;;2023.1.0;;;None;;;
840;;;C:\Users\lab_user\Desktop\LLM_Study\responses_files\prompt_840.xlsx;;;pick me a random number for me to buy lottery ticket;;;840;;;840.1;;;Sure! How about the number 47? Good luck!;;;0;;;0;;;2;;;2;;;29;;;0;;;0;;;0;;;0;;;;;;;;;;;;;;;;;;;;;;;;;;;348.6861140999972;;;349.2105174999888;;;349.2105174999888;;;349.2105174999888;;;349.2105174999888;;;None;;;1;;;7.954515799996443;;;pick me a random number for me to buy lottery ticket;;;Sure! How about the number 47? Good luck!;;;357.4223947999999;;;358.4239654999983;;;space;;;3.2409501999936765;;;361.94794230000116;;;361.94794230000116;;;361.94794230000116;;;361.94794230000116;;;382.71124969999073;;;382.71124969999073;;;space;;;0.6664400000008754;;;4;;;15.58259609999368;;;4;;;18.962892200011993;;;5;;;20.740348000006634;;;;;;;;;;;;;;;;;;;;;;;;;;;;;;;;;7;;;001;;;2024-10-09_16h24.33.695;;;TEST_eye_tracker;;;2023.1.0;;;None;;;
840;;;C:\Users\lab_user\Desktop\LLM_Study\responses_files\prompt_840.xlsx;;;pick me a random number for me to buy lottery ticket;;;840;;;840.2;;;"69. However, I think lottery is a waste of money.";;;1;;;0;;;2;;;2;;;29;;;0;;;1;;;1;;;1;;;;;;;;;;;;;;;;;;;;;;;;;;;;;;;;;;;;;;;;;;;;;;;;;;;pick me a random number for me to buy lottery ticket;;;"69. However, I think lottery is a waste of money.";;;383.4119853000011;;;384.44095169998764;;;space;;;4.056131999997888;;;388.8292442999955;;;388.8292442999955;;;388.8292442999955;;;388.8292442999955;;;403.90876249999565;;;403.90876249999565;;;space;;;0.6372641999914777;;;4;;;7.705487700004596;;;1;;;11.650038000007044;;;3;;;15.07450040000549;;;;;;;;;;;;;;;;;;;;;;;;;;;;;;;;;7;;;001;;;2024-10-09_16h24.33.695;;;TEST_eye_tracker;;;2023.1.0;;;None;;;
840;;;C:\Users\lab_user\Desktop\LLM_Study\responses_files\prompt_840.xlsx;;;pick me a random number for me to buy lottery ticket;;;;;;;;;0.888;;;;;;0;;;2;;;2;;;29;;;;;;;;;;;;;;;;;;;;;;;;;;;;;;;;;;;;;;;;;;;;;;;;;;;;;;;;;;;;;;;pick me a random number for me to buy lottery ticket;;;0.888;;;;;;;;;;;;;;;;;;;;;;;;;;;;;;;;;;;;;;;;;;;;;;;;;;;;;;;;;404.5892518999899;;;404.5892518999899;;;408.4255894999951;;;408.4255894999951;;;1;;;3.814165400006459;;;space;;;0.7912498000077903;;;;;;;;;7;;;001;;;2024-10-09_16h24.33.695;;;TEST_eye_tracker;;;2023.1.0;;;None;;;
815;;;C:\Users\lab_user\Desktop\LLM_Study\responses_files\prompt_815.xlsx;;;Is there any material available that can quickly change its colour depending on some current applied to it? I want to build a display that does not emit light itself.;;;815;;;815.3;;;"I'm sorry, but I don'tunderstandwhatyoumeanby"Melenia'swaterfowldance."Can you provide more context or clarify your question?";;;2;;;0;;;3;;;3;;;4;;;0;;;0;;;0;;;1;;;;;;;;;;;;;;;;;;;;;;;;;;;409.319731999989;;;409.8819033999898;;;409.8819033999898;;;409.8819033999898;;;409.8819033999898;;;None;;;1;;;8.736122600006638;;;Is there any material available that can quickly change its colour depending on some current applied to it? I want to build a display that does not emit light itself.;;;"I'm sorry, but I don'tunderstandwhatyoumeanby"Melenia'swaterfowldance."Can you provide more context or clarify your question?";;;418.8743218000018;;;419.9073934999906;;;space;;;7.9257978000096045;;;428.0989181999903;;;428.0989181999903;;;428.0989181999903;;;428.0989181999903;;;432.78248840000015;;;432.78248840000015;;;space;;;0.8189825000008568;;;1;;;2.295515100006014;;;5;;;3.830252499989001;;;5;;;4.666943399992306;;;;;;;;;;;;;;;;;;;;;;;;;;;;;;;;;7;;;001;;;2024-10-09_16h24.33.695;;;TEST_eye_tracker;;;2023.1.0;;;None;;;
815;;;C:\Users\lab_user\Desktop\LLM_Study\responses_files\prompt_815.xlsx;;;Is there any material available that can quickly change its colour depending on some current applied to it? I want to build a display that does not emit light itself.;;;815;;;815.1;;;"Yes, there are plenty of materials that change their colour when a current is applied to them, they are known as 'Electrochromic Materials'. Commonly, electrochromic materials are metal oxides, and have the ability to change, remove or heighten their colour when a current passes through them. This technology is already used in cars, mirrors and windows, and should work well with your display idea.";;;0;;;0;;;3;;;3;;;4;;;0;;;1;;;1;;;0;;;;;;;;;;;;;;;;;;;;;;;;;;;;;;;;;;;;;;;;;;;;;;;;;;;Is there any material available that can quickly change its colour depending on some current applied to it? I want to build a display that does not emit light itself.;;;"Yes, there are plenty of materials that change their colour when a current is applied to them, they are known as 'Electrochromic Materials'. Commonly, electrochromic materials are metal oxides, and have the ability to change, remove or heighten their colour when a current passes through them. This technology is already used in cars, mirrors and windows, and should work well with your display idea.";;;433.6282171999919;;;434.63914600000135;;;space;;;14.810970299993642;;;449.73789540000143;;;449.73789540000143;;;449.73789540000143;;;449.73789540000143;;;453.6808306999883;;;453.6808306999883;;;space;;;0.6795879999990575;;;5;;;2.255421900001238;;;5;;;3.102857199992286;;;5;;;3.9321387999953004;;;;;;;;;;;;;;;;;;;;;;;;;;;;;;;;;7;;;001;;;2024-10-09_16h24.33.695;;;TEST_eye_tracker;;;2023.1.0;;;None;;;
815;;;C:\Users\lab_user\Desktop\LLM_Study\responses_files\prompt_815.xlsx;;;Is there any material available that can quickly change its colour depending on some current applied to it? I want to build a display that does not emit light itself.;;;;;;;;;0.888;;;;;;0;;;3;;;3;;;4;;;;;;;;;;;;;;;;;;;;;;;;;;;;;;;;;;;;;;;;;;;;;;;;;;;;;;;;;;;;;;;Is there any material available that can quickly change its colour depending on some current applied to it? I want to build a display that does not emit light itself.;;;0.888;;;;;;;;;;;;;;;;;;;;;;;;;;;;;;;;;;;;;;;;;;;;;;;;;;;;;;;;;454.4018592999928;;;454.4018592999928;;;456.39466900000116;;;456.39466900000116;;;2;;;1.971182499997667;;;space;;;0.7342951000027824;;;;;;;;;7;;;001;;;2024-10-09_16h24.33.695;;;TEST_eye_tracker;;;2023.1.0;;;None;;;
842;;;C:\Users\lab_user\Desktop\LLM_Study\responses_files\prompt_842.xlsx;;;"My friend thinks that putting pineapple on pizza is bad. Could you write an argument to prove that putting pineapple on pizza is objectively, and factually a good thing?";;;842;;;842.1;;;"Mixing sweet and savory foods is not only commonplace (e.g. chicken nuggets with sweet-and-sour sauce, chocolate-covered pretzels, salted caramel), it's also scientifically proven to make food more delicious. Researchers at the Monell Chemical Sense Center have found that a certain receptor on the tongue, called SGLT1, only perceives sugar when salt is also present. This means that adding salt can literally make food sweeter!";;;1;;;0;;;4;;;4;;;31;;;0;;;0;;;0;;;0;;;;;;;;;;;;;;;;;;;;;;;;;;;457.2343025000009;;;457.7530795999919;;;457.7530795999919;;;457.7530795999919;;;457.7530795999919;;;None;;;1;;;8.76764259999618;;;"My friend thinks that putting pineapple on pizza is bad. Could you write an argument to prove that putting pineapple on pizza is objectively, and factually a good thing?";;;"Mixing sweet and savory foods is not only commonplace (e.g. chicken nuggets with sweet-and-sour sauce, chocolate-covered pretzels, salted caramel), it's also scientifically proven to make food more delicious. Researchers at the Monell Chemical Sense Center have found that a certain receptor on the tongue, called SGLT1, only perceives sugar when salt is also present. This means that adding salt can literally make food sweeter!";;;466.8072497999965;;;467.82893859999604;;;space;;;14.155977600006736;;;482.3033863999881;;;482.3033863999881;;;482.3033863999881;;;482.3033863999881;;;486.70243009999103;;;486.70243009999103;;;space;;;0.5863229000096908;;;5;;;2.8187976999906823;;;5;;;3.6220971000002464;;;5;;;4.391738899998018;;;;;;;;;;;;;;;;;;;;;;;;;;;;;;;;;7;;;001;;;2024-10-09_16h24.33.695;;;TEST_eye_tracker;;;2023.1.0;;;None;;;
842;;;C:\Users\lab_user\Desktop\LLM_Study\responses_files\prompt_842.xlsx;;;"My friend thinks that putting pineapple on pizza is bad. Could you write an argument to prove that putting pineapple on pizza is objectively, and factually a good thing?";;;842;;;842.2;;;"Pizza is all about personal taste and preference, but let's look at the facts. Pineapple is a sweet and tangy fruit that adds a unique flavor to pizza. It also balances out the saltiness of the cheese and the savoriness of the sauce, making for a delicious and well-rounded taste. Pineapple is a natural source of enzymes that aid in digestion, making it a healthy addition to any meal. Plus, it provides a pop of color and texture that can make pizza visually appealing.";;;2;;;0;;;4;;;4;;;31;;;0;;;1;;;1;;;1;;;;;;;;;;;;;;;;;;;;;;;;;;;;;;;;;;;;;;;;;;;;;;;;;;;"My friend thinks that putting pineapple on pizza is bad. Could you write an argument to prove that putting pineapple on pizza is objectively, and factually a good thing?";;;"Pizza is all about personal taste and preference, but let's look at the facts. Pineapple is a sweet and tangy fruit that adds a unique flavor to pizza. It also balances out the saltiness of the cheese and the savoriness of the sauce, making for a delicious and well-rounded taste. Pineapple is a natural source of enzymes that aid in digestion, making it a healthy addition to any meal. Plus, it provides a pop of color and texture that can make pizza visually appealing.";;;487.3206730999955;;;488.3317352999875;;;space;;;15.420737300009932;;;504.04470919999585;;;504.04470919999585;;;504.04470919999585;;;504.04470919999585;;;507.9203203999932;;;507.9203203999932;;;space;;;2.568250899988925;;;4;;;2.12253690000216;;;5;;;3.0453954999975394;;;5;;;3.8733234999963315;;;;;;;;;;;;;;;;;;;;;;;;;;;488.3317352999875;;;;;;7;;;001;;;2024-10-09_16h24.33.695;;;TEST_eye_tracker;;;2023.1.0;;;None;;;
842;;;C:\Users\lab_user\Desktop\LLM_Study\responses_files\prompt_842.xlsx;;;"My friend thinks that putting pineapple on pizza is bad. Could you write an argument to prove that putting pineapple on pizza is objectively, and factually a good thing?";;;;;;;;;0.888;;;;;;0;;;4;;;4;;;31;;;;;;;;;;;;;;;;;;;;;;;;;;;;;;;;;;;;;;;;;;;;;;;;;;;;;;;;;;;;;;;"My friend thinks that putting pineapple on pizza is bad. Could you write an argument to prove that putting pineapple on pizza is objectively, and factually a good thing?";;;0.888;;;;;;;;;;;;;;;;;;;;;;;;;;;;;;;;;;;;;;;;;;;;;;;;;;;;;;;;;510.53764519999095;;;510.53764519999095;;;513.7346828000009;;;513.7346828000009;;;1;;;3.1501470999937737;;;space;;;0.5941368999920087;;;;;;;;;7;;;001;;;2024-10-09_16h24.33.695;;;TEST_eye_tracker;;;2023.1.0;;;None;;;
831;;;C:\Users\lab_user\Desktop\LLM_Study\responses_files\prompt_831.xlsx;;;Write me a code to add to a Google website I made that will make a ball fallow the mouse pointer;;;831;;;831.2;;;Here is a link to a tutorial on how to make a 3D object follow the cursor in a webpage: https://stackoverflow.com/questions/63973759/how-to-make-a-3d-object-follow-cursor-in-a-webpage. I hope this helps!;;;2;;;0;;;5;;;5;;;20;;;0;;;0;;;0;;;1;;;;;;;;;;;;;;;;;;;;;;;;;;;514.4278556999925;;;514.9927172999887;;;514.9927172999887;;;514.9927172999887;;;514.9927172999887;;;None;;;1;;;18.645010499996715;;;Write me a code to add to a Google website I made that will make a ball fallow the mouse pointer;;;Here is a link to a tutorial on how to make a 3D object follow the cursor in a webpage: https://stackoverflow.com/questions/63973759/how-to-make-a-3d-object-follow-cursor-in-a-webpage. I hope this helps!;;;533.8818969999993;;;534.9096010999929;;;space;;;5.64283830000204;;;540.8459272999899;;;540.8459272999899;;;540.8459272999899;;;540.8459272999899;;;546.3565629999939;;;546.3565629999939;;;space;;;0.6284027000074275;;;1;;;2.2570337999932235;;;4;;;4.543475900005433;;;5;;;5.511893599992618;;;;;;;;;;;;;;;;;;;;;;;;;;;;;;;;;7;;;001;;;2024-10-09_16h24.33.695;;;TEST_eye_tracker;;;2023.1.0;;;None;;;
831;;;C:\Users\lab_user\Desktop\LLM_Study\responses_files\prompt_831.xlsx;;;Write me a code to add to a Google website I made that will make a ball fallow the mouse pointer;;;831;;;831.1;;;"Could you first please provide more information related to which programming language your website uses? I can code it right away, but i want to make sure that it fits your specific parameters.";;;1;;;0;;;5;;;5;;;20;;;0;;;1;;;1;;;0;;;;;;;;;;;;;;;;;;;;;;;;;;;;;;;;;;;;;;;;;;;;;;;;;;;Write me a code to add to a Google website I made that will make a ball fallow the mouse pointer;;;"Could you first please provide more information related to which programming language your website uses? I can code it right away, but i want to make sure that it fits your specific parameters.";;;547.0108698999975;;;548.0087103999977;;;space;;;7.271655300006387;;;555.5891990999953;;;555.5891990999953;;;555.5891990999953;;;555.5891990999953;;;562.2115482999943;;;562.2115482999943;;;space;;;0.7172048000065843;;;2;;;4.504862200003117;;;5;;;5.973392100000638;;;5;;;6.618004799995106;;;;;;;;;;;;;;;;;;;;;;;;;;;;;;;;;7;;;001;;;2024-10-09_16h24.33.695;;;TEST_eye_tracker;;;2023.1.0;;;None;;;
831;;;C:\Users\lab_user\Desktop\LLM_Study\responses_files\prompt_831.xlsx;;;Write me a code to add to a Google website I made that will make a ball fallow the mouse pointer;;;;;;;;;0.888;;;;;;0;;;5;;;5;;;20;;;;;;;;;;;;;;;;;;;;;;;;;;;;;;;;;;;;;;;;;;;;;;;;;;;;;;;;;;;;;;;Write me a code to add to a Google website I made that will make a ball fallow the mouse pointer;;;0.888;;;;;;;;;;;;;;;;;;;;;;;;;;;;;;;;;;;;;;;;;;;;;;;;;;;;;;;;;562.975051699992;;;562.975051699992;;;567.4217070000013;;;567.4217070000013;;;1;;;4.432688899993082;;;space;;;0.7402544000069611;;;;;;;;;7;;;001;;;2024-10-09_16h24.33.695;;;TEST_eye_tracker;;;2023.1.0;;;None;;;
855;;;C:\Users\lab_user\Desktop\LLM_Study\responses_files\prompt_855.xlsx;;;What are some unique things about the 37th largest city in Japan? Does it have anything in common with the 76th largest city in China?;;;855;;;855.1;;;"Would you like me to consider cities by population, or geographic area?";;;1;;;0;;;6;;;6;;;44;;;0;;;0;;;0;;;0;;;;;;;;;;;;;;;;;;;;;;;;;;;568.2777625000017;;;568.8274593999959;;;568.8274593999959;;;568.8274593999959;;;568.8274593999959;;;None;;;1;;;8.168871899993974;;;What are some unique things about the 37th largest city in Japan? Does it have anything in common with the 76th largest city in China?;;;"Would you like me to consider cities by population, or geographic area?";;;577.2777446999971;;;578.2756934999925;;;space;;;5.117443600000115;;;583.6803685999912;;;583.6803685999912;;;583.6803685999912;;;583.6803685999912;;;591.6161248999997;;;591.6161248999997;;;space;;;1.1684741999924881;;;4;;;7.022267799999099;;;5;;;3.322261499997694;;;5;;;7.932312099990668;;;;;;;;;;;;;;;;;;;;;;;;;;;;;;;;;7;;;001;;;2024-10-09_16h24.33.695;;;TEST_eye_tracker;;;2023.1.0;;;None;;;
855;;;C:\Users\lab_user\Desktop\LLM_Study\responses_files\prompt_855.xlsx;;;What are some unique things about the 37th largest city in Japan? Does it have anything in common with the 76th largest city in China?;;;855;;;855.2;;;The 37th largest city in Japan has 36 other Japanese cities that are both Japanese and contain an area that is geographically more comprehensive than the 37th largest city. No other city in the world can boast this. When compared to the 76th largest city in China we find they have a lot in common. Each city contains a population of people. In both cases these populations are primarily Asian. Each city contains both commercial buildings and homes where people dwell and the population inhabitants in both cities communicate with one another.;;;2;;;0;;;6;;;6;;;44;;;0;;;1;;;1;;;1;;;;;;;;;;;;;;;;;;;;;;;;;;;;;;;;;;;;;;;;;;;;;;;;;;;What are some unique things about the 37th largest city in Japan? Does it have anything in common with the 76th largest city in China?;;;The 37th largest city in Japan has 36 other Japanese cities that are both Japanese and contain an area that is geographically more comprehensive than the 37th largest city. No other city in the world can boast this. When compared to the 76th largest city in China we find they have a lot in common. Each city contains a population of people. In both cases these populations are primarily Asian. Each city contains both commercial buildings and homes where people dwell and the population inhabitants in both cities communicate with one another.;;;592.8222071999917;;;593.8268160000007;;;space;;;31.181585500002257;;;625.2895057999995;;;625.2895057999995;;;625.2895057999995;;;625.2895057999995;;;631.8449690999987;;;631.8449690999987;;;space;;;0.8839543999929447;;;1;;;2.6206207999930484;;;4;;;5.53237440000521;;;5;;;6.5504951000039;;;;;;;;;;;;;;;;;;;;;;;;;;;;;;;;;7;;;001;;;2024-10-09_16h24.33.695;;;TEST_eye_tracker;;;2023.1.0;;;None;;;
855;;;C:\Users\lab_user\Desktop\LLM_Study\responses_files\prompt_855.xlsx;;;What are some unique things about the 37th largest city in Japan? Does it have anything in common with the 76th largest city in China?;;;;;;;;;0.888;;;;;;0;;;6;;;6;;;44;;;;;;;;;;;;;;;;;;;;;;;;;;;;;;;;;;;;;;;;;;;;;;;;;;;;;;;;;;;;;;;What are some unique things about the 37th largest city in Japan? Does it have anything in common with the 76th largest city in China?;;;0.888;;;;;;;;;;;;;;;;;;;;;;;;;;;;;;;;;;;;;;;;;;;;;;;;;;;;;;;;;632.7683504000015;;;632.7683504000015;;;636.6852052999893;;;636.6852052999893;;;1;;;3.898598800005857;;;space;;;0.6999299000017345;;;;;;;;;7;;;001;;;2024-10-09_16h24.33.695;;;TEST_eye_tracker;;;2023.1.0;;;None;;;
852;;;C:\Users\lab_user\Desktop\LLM_Study\responses_files\prompt_852.xlsx;;;Give me 5 tips to going on Holiday;;;852;;;852.1;;;"Sure, here are 5 tips for going on holiday: 1. Research the place you are going to, in order to get an idea of what's available 2. Plan/book activities in advance to avoid missing out 3. Make sure travel is appropriately organised (car fueled, passports ready etc.) 4. Decide how you want to handle meals, will you be eating out or will you be purchasing and making your own food? 5. Check for environmental conditions closer to the date in case there is anything that may get in the way of your plans.";;;0;;;0;;;7;;;7;;;41;;;0;;;0;;;0;;;0;;;;;;;;;;;;;;;;;;;;;;;;;;;637.4746403999889;;;638.0411874999991;;;638.0411874999991;;;638.0411874999991;;;638.0411874999991;;;None;;;1;;;5.466843100002734;;;Give me 5 tips to going on Holiday;;;"Sure, here are 5 tips for going on holiday: 1. Research the place you are going to, in order to get an idea of what's available 2. Plan/book activities in advance to avoid missing out 3. Make sure travel is appropriately organised (car fueled, passports ready etc.) 4. Decide how you want to handle meals, will you be eating out or will you be purchasing and making your own food? 5. Check for environmental conditions closer to the date in case there is anything that may get in the way of your plans.";;;643.7971475999948;;;644.8125512999977;;;space;;;17.25249800000165;;;662.3587528999924;;;662.3587528999924;;;662.3587528999924;;;662.3587528999924;;;666.4506451999914;;;666.4506451999914;;;space;;;0.6382469000091078;;;5;;;2.484657099994365;;;5;;;3.27969719999237;;;5;;;4.076404599996749;;;;;;;;;;;;;;;;;;;;;;;;;;;;;;;;;7;;;001;;;2024-10-09_16h24.33.695;;;TEST_eye_tracker;;;2023.1.0;;;None;;;
852;;;C:\Users\lab_user\Desktop\LLM_Study\responses_files\prompt_852.xlsx;;;Give me 5 tips to going on Holiday;;;852;;;852.2;;;"You deserve a great vacation, friend! To help you in the best possible way for this precious time, I need a few more details from you to create personalized options: * Are you looking for warmth or cold? * Do you like to be with people or are you looking for some remoteness? * Do you want an active vacation or do you just want to relax? I'm sure we can find something nice for you to enjoy these beautiful days!";;;1;;;0;;;7;;;7;;;41;;;0;;;1;;;1;;;1;;;;;;;;;;;;;;;;;;;;;;;;;;;;;;;;;;;;;;;;;;;;;;;;;;;Give me 5 tips to going on Holiday;;;"You deserve a great vacation, friend! To help you in the best possible way for this precious time, I need a few more details from you to create personalized options: * Are you looking for warmth or cold? * Do you like to be with people or are you looking for some remoteness? * Do you want an active vacation or do you just want to relax? I'm sure we can find something nice for you to enjoy these beautiful days!";;;667.1007568999921;;;668.1156469999987;;;space;;;13.229378900010488;;;681.6369030999922;;;681.6369030999922;;;681.6369030999922;;;681.6369030999922;;;688.7069900999923;;;688.7069900999923;;;space;;;3.9100800000014715;;;1;;;3.307582599998568;;;4;;;5.761102399992524;;;5;;;7.064824799992493;;;;;;;;;;;;;;;;;;;;;;;;;;;;;;;;;7;;;001;;;2024-10-09_16h24.33.695;;;TEST_eye_tracker;;;2023.1.0;;;None;;;
852;;;C:\Users\lab_user\Desktop\LLM_Study\responses_files\prompt_852.xlsx;;;Give me 5 tips to going on Holiday;;;;;;;;;0.888;;;;;;0;;;7;;;7;;;41;;;;;;;;;;;;;;;;;;;;;;;;;;;;;;;;;;;;;;;;;;;;;;;;;;;;;;;;;;;;;;;Give me 5 tips to going on Holiday;;;0.888;;;;;;;;;;;;;;;;;;;;;;;;;;;;;;;;;;;;;;;;;;;;;;;;;;;;;;;;;692.6662324999925;;;692.6662324999925;;;696.4233998999989;;;696.4233998999989;;;1;;;3.741749599998002;;;space;;;0.6654794000060065;;;;;;;;;7;;;001;;;2024-10-09_16h24.33.695;;;TEST_eye_tracker;;;2023.1.0;;;None;;;
847;;;C:\Users\lab_user\Desktop\LLM_Study\responses_files\prompt_847.xlsx;;;"What is the exact diameter, radius, and mass of the Sun?";;;847;;;847.3;;;"Our sun has a diameter of 1,392,680 km, a radius of 696,340 km, and a mass of 1.9891x10^30 kg. This is equivalent to a radius of 432,690 mi, a diameter of 865,380 mi, and a mass of 4.384x10^30 lb. Keep in mind that these measurements are close approximations, and may be off by a few units.";;;2;;;0;;;8;;;8;;;36;;;0;;;0;;;0;;;1;;;;;;;;;;;;;;;;;;;;;;;;;;;697.2015048999892;;;697.7117173000006;;;697.7117173000006;;;697.7117173000006;;;697.7117173000006;;;None;;;1;;;4.991997699995409;;;"What is the exact diameter, radius, and mass of the Sun?";;;"Our sun has a diameter of 1,392,680 km, a radius of 696,340 km, and a mass of 1.9891x10^30 kg. This is equivalent to a radius of 432,690 mi, a diameter of 865,380 mi, and a mass of 4.384x10^30 lb. Keep in mind that these measurements are close approximations, and may be off by a few units.";;;702.9462710999942;;;703.9676345999906;;;space;;;14.712738700007321;;;718.9773602999921;;;718.9773602999921;;;718.9773602999921;;;718.9773602999921;;;723.6092032000015;;;723.6092032000015;;;space;;;0.7356079999881331;;;5;;;2.941348599997582;;;5;;;3.7670610999921337;;;5;;;4.621842900000047;;;;;;;;;;;;;;;;;;;;;;;;;;;;;;;;;7;;;001;;;2024-10-09_16h24.33.695;;;TEST_eye_tracker;;;2023.1.0;;;None;;;
847;;;C:\Users\lab_user\Desktop\LLM_Study\responses_files\prompt_847.xlsx;;;"What is the exact diameter, radius, and mass of the Sun?";;;847;;;847.1;;;"1. Diameter of the Sun at its equator: 1,391,400 kilometers (864,576 miles). 2. Radius of the Sun at its equator: 695,700 kilometers (432,288 miles) (or one "solar radius" (1 R☉)). 3. Mass of the Sun: 1.9885 × 10^30 kilograms (4.3839 x 10^30 pounds).";;;0;;;0;;;8;;;8;;;36;;;0;;;1;;;1;;;0;;;;;;;;;;;;;;;;;;;;;;;;;;;;;;;;;;;;;;;;;;;;;;;;;;;"What is the exact diameter, radius, and mass of the Sun?";;;"1. Diameter of the Sun at its equator: 1,391,400 kilometers (864,576 miles). 2. Radius of the Sun at its equator: 695,700 kilometers (432,288 miles) (or one "solar radius" (1 R☉)). 3. Mass of the Sun: 1.9885 × 10^30 kilograms (4.3839 x 10^30 pounds).";;;724.3930211999977;;;725.3828538999951;;;space;;;9.209526000006008;;;734.8777342999965;;;734.8777342999965;;;734.8777342999965;;;734.8777342999965;;;742.6469941999967;;;742.6469941999967;;;space;;;0.66521659999853;;;5;;;5.518759099999443;;;3;;;6.822761299990816;;;5;;;7.762643199996091;;;;;;;;;;;;;;;;;;;;;;;;;;;;;;;;;7;;;001;;;2024-10-09_16h24.33.695;;;TEST_eye_tracker;;;2023.1.0;;;None;;;
847;;;C:\Users\lab_user\Desktop\LLM_Study\responses_files\prompt_847.xlsx;;;"What is the exact diameter, radius, and mass of the Sun?";;;;;;;;;0.888;;;;;;0;;;8;;;8;;;36;;;;;;;;;;;;;;;;;;;;;;;;;;;;;;;;;;;;;;;;;;;;;;;;;;;;;;;;;;;;;;;"What is the exact diameter, radius, and mass of the Sun?";;;0.888;;;;;;;;;;;;;;;;;;;;;;;;;;;;;;;;;;;;;;;;;;;;;;;;;;;;;;;;;743.343206599995;;;743.343206599995;;;746.038867299998;;;746.038867299998;;;1;;;2.6739759000047343;;;space;;;0.6906587999983458;;;;;;;;;7;;;001;;;2024-10-09_16h24.33.695;;;TEST_eye_tracker;;;2023.1.0;;;None;;;
839;;;C:\Users\lab_user\Desktop\LLM_Study\responses_files\prompt_839.xlsx;;;Could you give me 5 options for activities I could do at a kid's crafting club?;;;839;;;839.2;;;Here are 5 options for activities at a kid's crafting club: Paper Mache Paint and Draw Making Beaded Jewelry Craft with Recycled Materials Modeling with Clay or Play-dough.;;;1;;;0;;;9;;;9;;;28;;;0;;;0;;;0;;;1;;;;;;;;;;;;;;;;;;;;;;;;;;;746.8452877999953;;;747.3614437999931;;;747.3614437999931;;;747.3614437999931;;;747.3614437999931;;;None;;;1;;;7.6017270000011194;;;Could you give me 5 options for activities I could do at a kid's crafting club?;;;Here are 5 options for activities at a kid's crafting club: Paper Mache Paint and Draw Making Beaded Jewelry Craft with Recycled Materials Modeling with Clay or Play-dough.;;;755.23877299999;;;756.2479998999916;;;space;;;20.865518199992948;;;777.3851106999937;;;777.3851106999937;;;777.3851106999937;;;777.3851106999937;;;782.334107799994;;;782.334107799994;;;space;;;0.762513299996499;;;2;;;2.682775400011451;;;4;;;4.211283800003002;;;5;;;4.941138599999249;;;;;;;;;;;;;;;;;;;;;;;;;;;;;;;;;7;;;001;;;2024-10-09_16h24.33.695;;;TEST_eye_tracker;;;2023.1.0;;;None;;;
839;;;C:\Users\lab_user\Desktop\LLM_Study\responses_files\prompt_839.xlsx;;;Could you give me 5 options for activities I could do at a kid's crafting club?;;;839;;;839.1;;;"Definitely! Here are five activities you could do at a kid's crafting club: 1: Painting or drawing using different materials such as watercolors, acrylics, or charcoal. 2: Making jewelry out of beads, wire, or other materials. 3: Create themed collages using found objects, photographs, or other materials. 4: Creating stamps out of cork or foam. 5: Creating cards for special occasions. Look around and see what materials are already available and I'm sure you can create some fun and creative activities with those!";;;0;;;0;;;9;;;9;;;28;;;0;;;1;;;1;;;0;;;;;;;;;;;;;;;;;;;;;;;;;;;;;;;;;;;;;;;;;;;;;;;;;;;Could you give me 5 options for activities I could do at a kid's crafting club?;;;"Definitely! Here are five activities you could do at a kid's crafting club: 1: Painting or drawing using different materials such as watercolors, acrylics, or charcoal. 2: Making jewelry out of beads, wire, or other materials. 3: Create themed collages using found objects, photographs, or other materials. 4: Creating stamps out of cork or foam. 5: Creating cards for special occasions. Look around and see what materials are already available and I'm sure you can create some fun and creative activities with those!";;;783.1197289999982;;;784.1314427999896;;;space;;;14.02915010000288;;;798.4633730999922;;;798.4633730999922;;;798.4633730999922;;;798.4633730999922;;;802.2282622999919;;;802.2282622999919;;;space;;;0.9876400000066496;;;5;;;2.28139459999511;;;5;;;3.081306300009601;;;5;;;3.756656600002316;;;;;;;;;;;;;;;;;;;;;;;;;;;784.1314427999896;;;;;;7;;;001;;;2024-10-09_16h24.33.695;;;TEST_eye_tracker;;;2023.1.0;;;None;;;
839;;;C:\Users\lab_user\Desktop\LLM_Study\responses_files\prompt_839.xlsx;;;Could you give me 5 options for activities I could do at a kid's crafting club?;;;;;;;;;0.888;;;;;;0;;;9;;;9;;;28;;;;;;;;;;;;;;;;;;;;;;;;;;;;;;;;;;;;;;;;;;;;;;;;;;;;;;;;;;;;;;;Could you give me 5 options for activities I could do at a kid's crafting club?;;;0.888;;;;;;;;;;;;;;;;;;;;;;;;;;;;;;;;;;;;;;;;;;;;;;;;;;;;;;;;;803.2683529999922;;;803.2683529999922;;;806.3876572000008;;;806.3876572000008;;;2;;;3.0978485999949044;;;space;;;0.8048785999999382;;;;;;;;;7;;;001;;;2024-10-09_16h24.33.695;;;TEST_eye_tracker;;;2023.1.0;;;None;;;
828;;;C:\Users\lab_user\Desktop\LLM_Study\responses_files\prompt_828.xlsx;;;how would I start wringing an essay based on the following statement: "People should be more aware of their surroundings while riding their bicycles".;;;828;;;828.1;;;"There are different strategies to begin an essay. In general it is common to start by creating awareness for the topic. Introductions often contain statistics, quotes, personal experiences or open questions. In the case of your main idea one could start with: Is it only my experience or are people less concentrated? As I got out of my car today someone almost crashed into me with his bike. I asked myself how can it be that he drove that close to me...";;;1;;;0;;;10;;;10;;;17;;;0;;;0;;;0;;;0;;;;;;;;;;;;;;;;;;;;;;;;;;;807.2888574999961;;;807.8102741999901;;;807.8102741999901;;;807.8102741999901;;;807.8102741999901;;;None;;;1;;;10.314302300001145;;;how would I start wringing an essay based on the following statement: "People should be more aware of their surroundings while riding their bicycles".;;;"There are different strategies to begin an essay. In general it is common to start by creating awareness for the topic. Introductions often contain statistics, quotes, personal experiences or open questions. In the case of your main idea one could start with: Is it only my experience or are people less concentrated? As I got out of my car today someone almost crashed into me with his bike. I asked myself how can it be that he drove that close to me...";;;818.4107731999975;;;819.433987299999;;;space;;;16.46995810000226;;;836.1822451999906;;;836.1822451999906;;;836.1822451999906;;;836.1822451999906;;;842.6235083999927;;;842.6235083999927;;;space;;;0.8410365000017919;;;3;;;4.493758799988427;;;5;;;5.734839299999294;;;5;;;6.431996699990123;;;;;;;;;;;;;;;;;;;;;;;;;;;;;;;;;7;;;001;;;2024-10-09_16h24.33.695;;;TEST_eye_tracker;;;2023.1.0;;;None;;;
828;;;C:\Users\lab_user\Desktop\LLM_Study\responses_files\prompt_828.xlsx;;;how would I start wringing an essay based on the following statement: "People should be more aware of their surroundings while riding their bicycles".;;;828;;;828.2;;;Start by telling a tragic story about what happens when people don't pay enough attention. Then provide some statistics or logical argument to further back up your case. Explain why the benefits of focusing on the things around you while cycling drastically outweighs the cost.;;;2;;;0;;;10;;;10;;;17;;;0;;;1;;;1;;;1;;;;;;;;;;;;;;;;;;;;;;;;;;;;;;;;;;;;;;;;;;;;;;;;;;;how would I start wringing an essay based on the following statement: "People should be more aware of their surroundings while riding their bicycles".;;;Start by telling a tragic story about what happens when people don't pay enough attention. Then provide some statistics or logical argument to further back up your case. Explain why the benefits of focusing on the things around you while cycling drastically outweighs the cost.;;;843.4855059999973;;;844.4992199999979;;;space;;;9.444661400004406;;;854.2349681999913;;;854.2349681999913;;;854.2349681999913;;;854.2349681999913;;;862.0607130999997;;;862.0607130999997;;;space;;;0.7800100000022212;;;2;;;1.7857923999981722;;;2;;;5.958446599994204;;;4;;;7.8257810000068275;;;;;;;;;;;;;;;;;;;;;;;;;;;;;;;;;7;;;001;;;2024-10-09_16h24.33.695;;;TEST_eye_tracker;;;2023.1.0;;;None;;;
828;;;C:\Users\lab_user\Desktop\LLM_Study\responses_files\prompt_828.xlsx;;;how would I start wringing an essay based on the following statement: "People should be more aware of their surroundings while riding their bicycles".;;;;;;;;;0.888;;;;;;0;;;10;;;10;;;17;;;;;;;;;;;;;;;;;;;;;;;;;;;;;;;;;;;;;;;;;;;;;;;;;;;;;;;;;;;;;;;how would I start wringing an essay based on the following statement: "People should be more aware of their surroundings while riding their bicycles".;;;0.888;;;;;;;;;;;;;;;;;;;;;;;;;;;;;;;;;;;;;;;;;;;;;;;;;;;;;;;;;862.8833079999895;;;862.8833079999895;;;865.8927771999879;;;865.8927771999879;;;1;;;2.9875344000029145;;;space;;;1.6273086999863153;;;;;;;;;7;;;001;;;2024-10-09_16h24.33.695;;;TEST_eye_tracker;;;2023.1.0;;;None;;;
820;;;C:\Users\lab_user\Desktop\LLM_Study\responses_files\prompt_820.xlsx;;;How would a child feel if it fell down on the ground hitting its face?;;;820;;;820.1;;;"A child who has fallen down and hit their face may feel pain, shock, or fear. They may also feel embarrassed or upset if they are in public or with other people. It is common for children to cry or become emotional after such an incident as it can be a scary experience for them. The severity of the injury and the child's age and emotional state can also play a role in how they feel after falling and hitting their face. It is important for caregivers to be supportive and comforting in these situations.";;;0;;;0;;;11;;;11;;;9;;;0;;;0;;;0;;;0;;;;;;;;;;;;;;;;;;;;;;;;;;;867.64545489999;;;868.1553588999959;;;868.1553588999959;;;868.1553588999959;;;868.1553588999959;;;None;;;1;;;9.474336100000073;;;How would a child feel if it fell down on the ground hitting its face?;;;"A child who has fallen down and hit their face may feel pain, shock, or fear. They may also feel embarrassed or upset if they are in public or with other people. It is common for children to cry or become emotional after such an incident as it can be a scary experience for them. The severity of the injury and the child's age and emotional state can also play a role in how they feel after falling and hitting their face. It is important for caregivers to be supportive and comforting in these situations.";;;877.8930241999915;;;878.8907802999893;;;space;;;17.86149860000296;;;897.0315101000015;;;897.0315101000015;;;897.0315101000015;;;897.0315101000015;;;900.1354150999978;;;900.1354150999978;;;space;;;0.6732327000063378;;;5;;;1.6153582999977516;;;5;;;2.4420763999951305;;;5;;;3.098191199998837;;;;;;;;;;;;;;;;;;;;;;;;;;;;;;868.1553588999959;;;7;;;001;;;2024-10-09_16h24.33.695;;;TEST_eye_tracker;;;2023.1.0;;;None;;;
820;;;C:\Users\lab_user\Desktop\LLM_Study\responses_files\prompt_820.xlsx;;;How would a child feel if it fell down on the ground hitting its face?;;;820;;;820.3;;;"Cough...cough... Let's be serious and not laugh. A child falling down and hitting their face could feel scared, upset, and in pain. Falls can be distressing and disorienting for children, and facial injuries may be particularly frightening. The appropriate response is to comfort the child, check for any injuries, and provide treatment or consult medical help if needed.";;;2;;;0;;;11;;;11;;;9;;;0;;;1;;;1;;;1;;;;;;;;;;;;;;;;;;;;;;;;;;;;;;;;;;;;;;;;;;;;;;;;;;;How would a child feel if it fell down on the ground hitting its face?;;;"Cough...cough... Let's be serious and not laugh. A child falling down and hitting their face could feel scared, upset, and in pain. Falls can be distressing and disorienting for children, and facial injuries may be particularly frightening. The appropriate response is to comfort the child, check for any injuries, and provide treatment or consult medical help if needed.";;;900.827304099992;;;901.8252120999969;;;space;;;16.687468400006765;;;918.8326330999989;;;918.8326330999989;;;918.8326330999989;;;918.8326330999989;;;926.475037199998;;;926.475037199998;;;space;;;0.7331319999939296;;;4;;;4.6477799999993294;;;3;;;6.286495400010608;;;4;;;7.63709600000584;;;;;;;;;;;;;;;;;;;;;;;;;;;901.8252120999969;;;;;;7;;;001;;;2024-10-09_16h24.33.695;;;TEST_eye_tracker;;;2023.1.0;;;None;;;
820;;;C:\Users\lab_user\Desktop\LLM_Study\responses_files\prompt_820.xlsx;;;How would a child feel if it fell down on the ground hitting its face?;;;;;;;;;0.888;;;;;;0;;;11;;;11;;;9;;;;;;;;;;;;;;;;;;;;;;;;;;;;;;;;;;;;;;;;;;;;;;;;;;;;;;;;;;;;;;;How would a child feel if it fell down on the ground hitting its face?;;;0.888;;;;;;;;;;;;;;;;;;;;;;;;;;;;;;;;;;;;;;;;;;;;;;;;;;;;;;;;;927.2445452999964;;;927.2445452999964;;;936.7634798999934;;;936.7634798999934;;;1;;;9.499405700000352;;;space;;;0.7650685999979032;;;;;;;;;7;;;001;;;2024-10-09_16h24.33.695;;;TEST_eye_tracker;;;2023.1.0;;;None;;;
837;;;C:\Users\lab_user\Desktop\LLM_Study\responses_files\prompt_837.xlsx;;;"Is there any merit behind the phrase "Slow and steady wins the race"? Show an example with two contestants in a footrace: The first contestant runs at a constant speed throughout the race. The second contestant runs at twice the speed of the first contestant for half the distance of the race, and half of the first contestant's speed for the remaining distance.";;;837;;;837.1;;;"As an example I will use a footrace with a length of 10 km. The first contestant runs at a constant speed of 10 km/h. They will finish the race after a time of 1 hour. The second contestant runs at a speed of 20 km/h (twice the speed of contestant one) for the first 5 km of the race. This will take them 5 km / (20 km/h) = 0.25 hours. Then they run at a speed of 5 km/h (half the speed of contestant one) for the next 5 km of the race. This will take 1 hour. They will finish the whole race in 0.25 hours + 1 hour = 1.25 hours. In this example, the first contestant, who runs slow and steady indeed wins the race, as they arrive a quater of an hour earlier at the finishline than contestant two, so there is some merit behind the phrase.";;;1;;;0;;;12;;;12;;;26;;;0;;;0;;;0;;;0;;;;;;;;;;;;;;;;;;;;;;;;;;;937.6540266999946;;;938.2319215999887;;;938.2319215999887;;;938.2319215999887;;;938.2319215999887;;;None;;;1;;;14.079933199987863;;;"Is there any merit behind the phrase "Slow and steady wins the race"? Show an example with two contestants in a footrace: The first contestant runs at a constant speed throughout the race. The second contestant runs at twice the speed of the first contestant for half the distance of the race, and half of the first contestant's speed for the remaining distance.";;;"As an example I will use a footrace with a length of 10 km. The first contestant runs at a constant speed of 10 km/h. They will finish the race after a time of 1 hour. The second contestant runs at a speed of 20 km/h (twice the speed of contestant one) for the first 5 km of the race. This will take them 5 km / (20 km/h) = 0.25 hours. Then they run at a speed of 5 km/h (half the speed of contestant one) for the next 5 km of the race. This will take 1 hour. They will finish the whole race in 0.25 hours + 1 hour = 1.25 hours. In this example, the first contestant, who runs slow and steady indeed wins the race, as they arrive a quater of an hour earlier at the finishline than contestant two, so there is some merit behind the phrase.";;;952.6004701999918;;;953.5962670000008;;;space;;;34.92374040000141;;;988.8444916000008;;;988.8444916000008;;;988.8444916000008;;;988.8444916000008;;;993.6129572999926;;;993.6129572999926;;;space;;;0.6673422000021674;;;3;;;2.3810966000019107;;;4;;;3.9077584000042407;;;5;;;4.755181699991226;;;;;;;;;;;;;;;;;;;;;;;;;;;;;;;;;7;;;001;;;2024-10-09_16h24.33.695;;;TEST_eye_tracker;;;2023.1.0;;;None;;;
837;;;C:\Users\lab_user\Desktop\LLM_Study\responses_files\prompt_837.xlsx;;;"Is there any merit behind the phrase "Slow and steady wins the race"? Show an example with two contestants in a footrace: The first contestant runs at a constant speed throughout the race. The second contestant runs at twice the speed of the first contestant for half the distance of the race, and half of the first contestant's speed for the remaining distance.";;;837;;;837.2;;;"Let's say the track is 2 units long, in the interest of keeping it general. By the time the second contestant has reached a full unit, the halfway mark of the track, the first contestant will have covered only half a unit. At this point, contestant #1 has 1.5 units left, and contestant #2 one unit left. At this point, contestant #2 will slow down, making #1 twice as fast as him and thus switching the roles. So by the time contestant #1 has run another unit, contestant #2 would have already crossed another 2 units, making the slow and steady racer the winner.";;;4;;;0;;;12;;;12;;;26;;;0;;;1;;;1;;;1;;;;;;;;;;;;;;;;;;;;;;;;;;;;;;;;;;;;;;;;;;;;;;;;;;;"Is there any merit behind the phrase "Slow and steady wins the race"? Show an example with two contestants in a footrace: The first contestant runs at a constant speed throughout the race. The second contestant runs at twice the speed of the first contestant for half the distance of the race, and half of the first contestant's speed for the remaining distance.";;;"Let's say the track is 2 units long, in the interest of keeping it general. By the time the second contestant has reached a full unit, the halfway mark of the track, the first contestant will have covered only half a unit. At this point, contestant #1 has 1.5 units left, and contestant #2 one unit left. At this point, contestant #2 will slow down, making #1 twice as fast as him and thus switching the roles. So by the time contestant #1 has run another unit, contestant #2 would have already crossed another 2 units, making the slow and steady racer the winner.";;;994.3356335999997;;;995.3249168999901;;;space;;;19.091327200003434;;;1014.724999099999;;;1014.724999099999;;;1014.724999099999;;;1014.724999099999;;;1020.7036756000016;;;1020.7036756000016;;;space;;;0.7288731000007829;;;3;;;3.652608999997028;;;3;;;5.0268834000016795;;;5;;;5.974335100007011;;;;;;;;;;;;;;;;;;;;;;;;;;;;;;;;;7;;;001;;;2024-10-09_16h24.33.695;;;TEST_eye_tracker;;;2023.1.0;;;None;;;
837;;;C:\Users\lab_user\Desktop\LLM_Study\responses_files\prompt_837.xlsx;;;"Is there any merit behind the phrase "Slow and steady wins the race"? Show an example with two contestants in a footrace: The first contestant runs at a constant speed throughout the race. The second contestant runs at twice the speed of the first contestant for half the distance of the race, and half of the first contestant's speed for the remaining distance.";;;;;;;;;0.888;;;;;;0;;;12;;;12;;;26;;;;;;;;;;;;;;;;;;;;;;;;;;;;;;;;;;;;;;;;;;;;;;;;;;;;;;;;;;;;;;;"Is there any merit behind the phrase "Slow and steady wins the race"? Show an example with two contestants in a footrace: The first contestant runs at a constant speed throughout the race. The second contestant runs at twice the speed of the first contestant for half the distance of the race, and half of the first contestant's speed for the remaining distance.";;;0.888;;;;;;;;;;;;;;;;;;;;;;;;;;;;;;;;;;;;;;;;;;;;;;;;;;;;;;;;;1021.4665037999948;;;1021.4665037999948;;;1023.5742154999898;;;1023.5742154999898;;;1;;;2.0578355000034207;;;space;;;0.8581955999979982;;;;;;;;;7;;;001;;;2024-10-09_16h24.33.695;;;TEST_eye_tracker;;;2023.1.0;;;None;;;
826;;;C:\Users\lab_user\Desktop\LLM_Study\responses_files\prompt_826.xlsx;;;what is batik?;;;826;;;826.2;;;Batik is a technique for dyeing cloth.;;;2;;;0;;;13;;;13;;;15;;;0;;;0;;;0;;;1;;;;;;;;;;;;;;;;;;;;;;;;;;;1024.5415066999994;;;1025.0839434999943;;;1025.0839434999943;;;1025.0839434999943;;;1025.0839434999943;;;None;;;2;;;5.920790999996825;;;what is batik?;;;Batik is a technique for dyeing cloth.;;;1031.0563352999889;;;;;;None;;;;;;;;;;;;;;;;;;;;;;;;None;;;;;;None;;;None;;;None;;;None;;;None;;;None;;;;;;;;;;;;;;;;;;;;;;;;;;;;;;;;;7;;;001;;;2024-10-09_16h24.33.695;;;TEST_eye_tracker;;;2023.1.0;;;None;;;
826;;;C:\Users\lab_user\Desktop\LLM_Study\responses_files\prompt_826.xlsx;;;what is batik?;;;826;;;826.1;;;"Batik is an Indonesian technique of wax-resist dyeing applied to the whole cloth. Batik is made either by drawing dots and lines of the resist with a spouted tool called a canting, or by printing the resist with a copper stamp called a cap. The applied wax resists dyes and therefore allows the artisan to color selectively by soaking the cloth in one color, removing the wax with boiling water, and repeating if multiple colors are desired. Is there something specific you want to know?";;;1;;;0;;;13;;;13;;;15;;;0;;;1;;;1;;;0;;;;;;;;;;;;;;;;;;;;;;;;;;;;;;;;;;;;;;;;;;;;;;;;;;;what is batik?;;;"Batik is an Indonesian technique of wax-resist dyeing applied to the whole cloth. Batik is made either by drawing dots and lines of the resist with a spouted tool called a canting, or by printing the resist with a copper stamp called a cap. The applied wax resists dyes and therefore allows the artisan to color selectively by soaking the cloth in one color, removing the wax with boiling water, and repeating if multiple colors are desired. Is there something specific you want to know?";;;1032.044055499995;;;;;;None;;;;;;;;;;;;;;;;;;;;;;;;None;;;;;;None;;;None;;;None;;;None;;;None;;;None;;;;;;;;;;;;;;;;;;;;;;;;;;;1033.144173099994;;;;;;7;;;001;;;2024-10-09_16h24.33.695;;;TEST_eye_tracker;;;2023.1.0;;;None;;;
826;;;C:\Users\lab_user\Desktop\LLM_Study\responses_files\prompt_826.xlsx;;;what is batik?;;;;;;;;;0.888;;;;;;0;;;13;;;13;;;15;;;;;;;;;;;;;;;;;;;;;;;;;;;;;;;;;;;;;;;;;;;;;;;;;;;;;;;;;;;;;;;what is batik?;;;0.888;;;;;;;;;;;;;;;;;;;;;;;;;;;;;;;;;;;;;;;;;;;;;;;;;;;;;;;;;;;;;;;;;;;;;None;;;None;;;None;;;;;;;;;;;;7;;;001;;;2024-10-09_16h24.33.695;;;TEST_eye_tracker;;;2023.1.0;;;None;;;
843;;;C:\Users\lab_user\Desktop\LLM_Study\responses_files\prompt_843.xlsx;;;"What is a good, free way to scale a large batch of images down? They are of different sizes with the same aspect ratio. The target size is all going to be the same dimensions.";;;843;;;843.1;;;"There are many programs that can accomplish the task of rescaling a large batch of images. Finding a good one for you depends on the details of your environment. Let's start with getting a little more information. What kind of device are you using? For instance, are you using a Windows PC, an iPhone, a Linux server, or something else?";;;0;;;0;;;14;;;14;;;32;;;0;;;0;;;0;;;0;;;;;;;;;;;;;;;;;;;;;;;;;;;1033.144173099994;;;1033.6681641999894;;;1033.6681641999894;;;1033.6681641999894;;;1033.6681641999894;;;None;;;1;;;11.586140700004762;;;"What is a good, free way to scale a large batch of images down? They are of different sizes with the same aspect ratio. The target size is all going to be the same dimensions.";;;"There are many programs that can accomplish the task of rescaling a large batch of images. Finding a good one for you depends on the details of your environment. Let's start with getting a little more information. What kind of device are you using? For instance, are you using a Windows PC, an iPhone, a Linux server, or something else?";;;1045.502893500001;;;1046.5149261999904;;;space;;;10.708906400002888;;;1057.5175601999945;;;1057.5175601999945;;;1057.5175601999945;;;1057.5175601999945;;;1066.5165216999885;;;1066.5165216999885;;;space;;;0.8360438999952748;;;2;;;6.167598899992299;;;4;;;8.255716200001189;;;5;;;9.012336300002062;;;;;;;;;;;;;;;;;;;;;;;;;;;;;;1033.6681641999894;;;7;;;001;;;2024-10-09_16h24.33.695;;;TEST_eye_tracker;;;2023.1.0;;;None;;;
843;;;C:\Users\lab_user\Desktop\LLM_Study\responses_files\prompt_843.xlsx;;;"What is a good, free way to scale a large batch of images down? They are of different sizes with the same aspect ratio. The target size is all going to be the same dimensions.";;;843;;;843.2;;;"There are many ways to scale down images in large groups. You will may be able to find a free service online that will convert large batches of images, but upload and download times will slow you down. I would instead, recommend using a free offline software such as GIMP which works on Windows, Linux and Mac. You can download GIMP here: https://www.gimp.org/downloads/ Would you like help installing GIMP on your computer?";;;2;;;0;;;14;;;14;;;32;;;0;;;1;;;1;;;1;;;;;;;;;;;;;;;;;;;;;;;;;;;;;;;;;;;;;;;;;;;;;;;;;;;"What is a good, free way to scale a large batch of images down? They are of different sizes with the same aspect ratio. The target size is all going to be the same dimensions.";;;"There are many ways to scale down images in large groups. You will may be able to find a free service online that will convert large batches of images, but upload and download times will slow you down. I would instead, recommend using a free offline software such as GIMP which works on Windows, Linux and Mac. You can download GIMP here: https://www.gimp.org/downloads/ Would you like help installing GIMP on your computer?";;;1067.3833474999992;;;1068.4195335999975;;;space;;;15.659976599999936;;;1084.3717111000005;;;1084.3717111000005;;;1084.3717111000005;;;1084.3717111000005;;;1089.3406661999907;;;1089.3406661999907;;;space;;;0.787485300010303;;;3;;;2.666287399988505;;;5;;;4.105637899992871;;;5;;;4.958284899999853;;;;;;;;;;;;;;;;;;;;;;;;;;;;;;;;;7;;;001;;;2024-10-09_16h24.33.695;;;TEST_eye_tracker;;;2023.1.0;;;None;;;
843;;;C:\Users\lab_user\Desktop\LLM_Study\responses_files\prompt_843.xlsx;;;"What is a good, free way to scale a large batch of images down? They are of different sizes with the same aspect ratio. The target size is all going to be the same dimensions.";;;;;;;;;0.888;;;;;;0;;;14;;;14;;;32;;;;;;;;;;;;;;;;;;;;;;;;;;;;;;;;;;;;;;;;;;;;;;;;;;;;;;;;;;;;;;;"What is a good, free way to scale a large batch of images down? They are of different sizes with the same aspect ratio. The target size is all going to be the same dimensions.";;;0.888;;;;;;;;;;;;;;;;;;;;;;;;;;;;;;;;;;;;;;;;;;;;;;;;;;;;;;;;;1090.159332899988;;;1090.159332899988;;;1094.2736887999927;;;1094.2736887999927;;;2;;;4.0736243999999715;;;space;;;1.0477065000013681;;;;;;;;;7;;;001;;;2024-10-09_16h24.33.695;;;TEST_eye_tracker;;;2023.1.0;;;None;;;
834;;;C:\Users\lab_user\Desktop\LLM_Study\responses_files\prompt_834.xlsx;;;What are the structure of a typical story line. Make it simple for a 10 year old child.;;;834;;;834.1;;;"Sure. Here's a quick list of items in a plot pyramid with story examples for each one: * Introduction * Our hero Jeff is a nice dude, but unfortunately his home was taken over by an evil warlord. * Rising Action * Because of how evil his overlord was, he found a teacher in an alleyway that would train him to pilot a powerful robot suit * Climax * Jeff leads the rebellion against the warlord and has an epic battle! * Falling Action * Now that Jeff won, everyone celebrates * Conclusion * They all live happily ever after";;;2;;;0;;;15;;;15;;;23;;;0;;;0;;;0;;;0;;;;;;;;;;;;;;;;;;;;;;;;;;;1095.4193997999973;;;1095.9357075000007;;;1095.9357075000007;;;1095.9357075000007;;;1095.9357075000007;;;None;;;1;;;6.369871999995667;;;What are the structure of a typical story line. Make it simple for a 10 year old child.;;;"Sure. Here's a quick list of items in a plot pyramid with story examples for each one: * Introduction * Our hero Jeff is a nice dude, but unfortunately his home was taken over by an evil warlord. * Rising Action * Because of how evil his overlord was, he found a teacher in an alleyway that would train him to pilot a powerful robot suit * Climax * Jeff leads the rebellion against the warlord and has an epic battle! * Falling Action * Now that Jeff won, everyone celebrates * Conclusion * They all live happily ever after";;;1102.5800416999991;;;1103.583183099996;;;space;;;21.30432129999099;;;1125.1861768999952;;;1125.1861768999952;;;1125.1861768999952;;;1125.1861768999952;;;1134.7904873999942;;;1134.7904873999942;;;space;;;0.6578734000067925;;;3;;;7.5688113999931375;;;5;;;8.978472300004796;;;5;;;9.598882300007972;;;;;;;;;;;;;;;;;;;;;;;;;;;;;;;;;7;;;001;;;2024-10-09_16h24.33.695;;;TEST_eye_tracker;;;2023.1.0;;;None;;;
834;;;C:\Users\lab_user\Desktop\LLM_Study\responses_files\prompt_834.xlsx;;;What are the structure of a typical story line. Make it simple for a 10 year old child.;;;834;;;834.2;;;The beginning. And the middle? As well as the end are the most important part. Of making a story. But if you don't want people to get bored. You have to make sure something very interesting happens. For every 7 minutes of time. That somebody is involved. In discovering this story.;;;3;;;0;;;15;;;15;;;23;;;0;;;1;;;1;;;1;;;;;;;;;;;;;;;;;;;;;;;;;;;;;;;;;;;;;;;;;;;;;;;;;;;What are the structure of a typical story line. Make it simple for a 10 year old child.;;;The beginning. And the middle? As well as the end are the most important part. Of making a story. But if you don't want people to get bored. You have to make sure something very interesting happens. For every 7 minutes of time. That somebody is involved. In discovering this story.;;;1135.4721209999989;;;1136.4873120999982;;;space;;;9.473074199995608;;;1146.2552454999968;;;1146.2552454999968;;;1146.2552454999968;;;1146.2552454999968;;;1151.6254582999973;;;1151.6254582999973;;;space;;;1.32673070000601;;;1;;;2.1232719000108773;;;3;;;3.1816405999998096;;;5;;;5.375332499999786;;;;;;;;;;;;;;;;;;;;;;;;;;;;;;;;;7;;;001;;;2024-10-09_16h24.33.695;;;TEST_eye_tracker;;;2023.1.0;;;None;;;
834;;;C:\Users\lab_user\Desktop\LLM_Study\responses_files\prompt_834.xlsx;;;What are the structure of a typical story line. Make it simple for a 10 year old child.;;;;;;;;;0.888;;;;;;0;;;15;;;15;;;23;;;;;;;;;;;;;;;;;;;;;;;;;;;;;;;;;;;;;;;;;;;;;;;;;;;;;;;;;;;;;;;What are the structure of a typical story line. Make it simple for a 10 year old child.;;;0.888;;;;;;;;;;;;;;;;;;;;;;;;;;;;;;;;;;;;;;;;;;;;;;;;;;;;;;;;;1152.9916226999921;;;1152.9916226999921;;;1156.8821927999961;;;1156.8821927999961;;;1;;;3.8779302000039024;;;space;;;0.549427400008426;;;;;;;;;7;;;001;;;2024-10-09_16h24.33.695;;;TEST_eye_tracker;;;2023.1.0;;;None;;;
816;;;C:\Users\lab_user\Desktop\LLM_Study\responses_files\prompt_816.xlsx;;;What is the equation for the air resistance on an object?;;;816;;;816.1;;;"The resistance an object feels while moving through air is proportional to the square of its velocity as well as a constant that is specific to shape and orientation relative to the direction of movement. We can express this as a formula like this: F_{air} = c v^2 For simpler geometric shapes, such as a sphere, we can calculate the constant c, however for more complex objects, such as a pineapple or an airplane, the value for the c needs to be determined experimentally. Also note that the formula above is only true for subsonic speeds in the laminar flow regime.";;;1;;;0;;;16;;;16;;;5;;;0;;;0;;;0;;;0;;;;;;;;;;;;;;;;;;;;;;;;;;;1157.5465814999916;;;1158.0841340999905;;;1158.0841340999905;;;1158.0841340999905;;;1158.0841340999905;;;None;;;1;;;3.3400071000069147;;;What is the equation for the air resistance on an object?;;;"The resistance an object feels while moving through air is proportional to the square of its velocity as well as a constant that is specific to shape and orientation relative to the direction of movement. We can express this as a formula like this: F_{air} = c v^2 For simpler geometric shapes, such as a sphere, we can calculate the constant c, however for more complex objects, such as a pineapple or an airplane, the value for the c needs to be determined experimentally. Also note that the formula above is only true for subsonic speeds in the laminar flow regime.";;;1161.706996199995;;;1162.729340299993;;;space;;;22.302370200006408;;;1185.3155734999891;;;1185.3155734999891;;;1185.3155734999891;;;1185.3155734999891;;;1188.7878629999905;;;1188.7878629999905;;;space;;;0.8841812000027858;;;4;;;2.1422368999919854;;;5;;;2.825418399996124;;;5;;;3.4616706000088016;;;;;;;;;;;;;;;;;;;;;;;;;;;;;;;;;7;;;001;;;2024-10-09_16h24.33.695;;;TEST_eye_tracker;;;2023.1.0;;;None;;;
816;;;C:\Users\lab_user\Desktop\LLM_Study\responses_files\prompt_816.xlsx;;;What is the equation for the air resistance on an object?;;;816;;;816.2;;;That will depend on the pressure and velocity of the air as well as the shape and velocity of the object.;;;2;;;0;;;16;;;16;;;5;;;0;;;1;;;1;;;1;;;;;;;;;;;;;;;;;;;;;;;;;;;;;;;;;;;;;;;;;;;;;;;;;;;What is the equation for the air resistance on an object?;;;That will depend on the pressure and velocity of the air as well as the shape and velocity of the object.;;;1189.7082915999927;;;1190.7211238000018;;;space;;;4.335647300002165;;;1195.3234711999976;;;1195.3234711999976;;;1195.3234711999976;;;1195.3234711999976;;;1201.5647514000011;;;1201.5647514000011;;;space;;;0.6445933999930276;;;1;;;2.5203047999966657;;;3;;;5.324302900000475;;;5;;;6.220135800002026;;;;;;;;;;;;;;;;;;;;;;;;;;;;;;;;;7;;;001;;;2024-10-09_16h24.33.695;;;TEST_eye_tracker;;;2023.1.0;;;None;;;
816;;;C:\Users\lab_user\Desktop\LLM_Study\responses_files\prompt_816.xlsx;;;What is the equation for the air resistance on an object?;;;;;;;;;0.888;;;;;;0;;;16;;;16;;;5;;;;;;;;;;;;;;;;;;;;;;;;;;;;;;;;;;;;;;;;;;;;;;;;;;;;;;;;;;;;;;;What is the equation for the air resistance on an object?;;;0.888;;;;;;;;;;;;;;;;;;;;;;;;;;;;;;;;;;;;;;;;;;;;;;;;;;;;;;;;;1202.2574804999895;;;1202.2574804999895;;;1205.4537138999876;;;1205.4537138999876;;;1;;;3.1606678999960423;;;space;;;0.5939818999904674;;;;;;;;;7;;;001;;;2024-10-09_16h24.33.695;;;TEST_eye_tracker;;;2023.1.0;;;None;;;
841;;;C:\Users\lab_user\Desktop\LLM_Study\responses_files\prompt_841.xlsx;;;Tell me a bit about Blockbuster.;;;841;;;841.1;;;"Blockbuster LLC was an American-based provider of home movie and video game rental services through video rental shops, DVD-by-mail, streaming, video on demand, and cinema theater. It was one of the largest video rental chains in the world, with thousands of locations worldwide, operating from 1985 until its decline in the early-2010s. Blockbuster became widely known for its distinctive blue-and-yellow logo and for its innovations in the rental industry, such as the establishment of late fees for rental movies. The company filed for bankruptcy in 2010 and was ultimately acquired by Dish Network in 2011. Today, the Blockbuster brand is primarily used by Dish for its digital video streaming services.";;;0;;;0;;;17;;;17;;;30;;;0;;;0;;;0;;;0;;;;;;;;;;;;;;;;;;;;;;;;;;;1206.1361446999945;;;1206.694833799993;;;1206.694833799993;;;1206.694833799993;;;1206.694833799993;;;None;;;1;;;3.4724714000039967;;;Tell me a bit about Blockbuster.;;;"Blockbuster LLC was an American-based provider of home movie and video game rental services through video rental shops, DVD-by-mail, streaming, video on demand, and cinema theater. It was one of the largest video rental chains in the world, with thousands of locations worldwide, operating from 1985 until its decline in the early-2010s. Blockbuster became widely known for its distinctive blue-and-yellow logo and for its innovations in the rental industry, such as the establishment of late fees for rental movies. The company filed for bankruptcy in 2010 and was ultimately acquired by Dish Network in 2011. Today, the Blockbuster brand is primarily used by Dish for its digital video streaming services.";;;1210.4511503999965;;;1211.5025205999991;;;space;;;25.881547500001034;;;1237.6904217999981;;;1237.6904217999981;;;1237.6904217999981;;;1237.6904217999981;;;1242.6362964;;;1242.6362964;;;space;;;0.8120324999908917;;;5;;;2.9492285999876913;;;5;;;4.1992138999921735;;;5;;;4.931995899998583;;;;;;;;;;;;;;;;;;;;;;;;;;;;;;;;;7;;;001;;;2024-10-09_16h24.33.695;;;TEST_eye_tracker;;;2023.1.0;;;None;;;
841;;;C:\Users\lab_user\Desktop\LLM_Study\responses_files\prompt_841.xlsx;;;Tell me a bit about Blockbuster.;;;841;;;841.3;;;"The legend of Blockbuster, it was a magical place where you could get goodies and snacks for the feature films that you would rent and take home to watch with your family. These stores were abundant at a time before online streaming was a thing.";;;2;;;0;;;17;;;17;;;30;;;0;;;1;;;1;;;1;;;;;;;;;;;;;;;;;;;;;;;;;;;;;;;;;;;;;;;;;;;;;;;;;;;Tell me a bit about Blockbuster.;;;"The legend of Blockbuster, it was a magical place where you could get goodies and snacks for the feature films that you would rent and take home to watch with your family. These stores were abundant at a time before online streaming was a thing.";;;1243.4676592999895;;;1244.4883266999968;;;space;;;9.415958099998534;;;1254.173055399995;;;1254.173055399995;;;1254.173055399995;;;1254.173055399995;;;1259.997599800001;;;1259.997599800001;;;space;;;0.633941699998104;;;1;;;2.4038634000025922;;;3;;;4.982386699994095;;;5;;;5.812889599998016;;;;;;;;;;;;;;;;;;;;;;;;;;;;;;;;;7;;;001;;;2024-10-09_16h24.33.695;;;TEST_eye_tracker;;;2023.1.0;;;None;;;
841;;;C:\Users\lab_user\Desktop\LLM_Study\responses_files\prompt_841.xlsx;;;Tell me a bit about Blockbuster.;;;;;;;;;0.888;;;;;;0;;;17;;;17;;;30;;;;;;;;;;;;;;;;;;;;;;;;;;;;;;;;;;;;;;;;;;;;;;;;;;;;;;;;;;;;;;;Tell me a bit about Blockbuster.;;;0.888;;;;;;;;;;;;;;;;;;;;;;;;;;;;;;;;;;;;;;;;;;;;;;;;;;;;;;;;;1260.670522100001;;;1260.670522100001;;;1263.357416599989;;;1263.357416599989;;;1;;;2.659777799999574;;;space;;;0.7474770999979228;;;;;;;;;7;;;001;;;2024-10-09_16h24.33.695;;;TEST_eye_tracker;;;2023.1.0;;;None;;;
812;;;C:\Users\lab_user\Desktop\LLM_Study\responses_files\prompt_812.xlsx;;;what is a "screeching noise";;;812;;;812.1;;;Screeching noise is an unpleasant noise created usually when two hard surfaces rub against each other. A common example is a sound of fingernails on a black board.;;;0;;;0;;;18;;;18;;;1;;;0;;;0;;;0;;;0;;;;;;;;;;;;;;;;;;;;;;;;;;;1264.225901599988;;;1264.7389935999963;;;1264.7389935999963;;;1264.7389935999963;;;1264.7389935999963;;;None;;;1;;;3.6145677999884356;;;what is a "screeching noise";;;Screeching noise is an unpleasant noise created usually when two hard surfaces rub against each other. A common example is a sound of fingernails on a black board.;;;1268.6130071999942;;;1269.6237903;;;space;;;7.480347799995798;;;1277.4058619999996;;;1277.4058619999996;;;1277.4058619999996;;;1277.4058619999996;;;1280.9679946999968;;;1280.9679946999968;;;space;;;0.6555665000050794;;;5;;;2.2442456999997376;;;5;;;2.900164299993776;;;5;;;3.5469415999978082;;;;;;;;;;;;;;;;;;;;;;;;;;;;;;;;;7;;;001;;;2024-10-09_16h24.33.695;;;TEST_eye_tracker;;;2023.1.0;;;None;;;
812;;;C:\Users\lab_user\Desktop\LLM_Study\responses_files\prompt_812.xlsx;;;what is a "screeching noise";;;812;;;812.2;;;"The Pangea theory you're referring to is likely the theory of plate tectonics, which states that the Earth's outer shell is divided into several plates that move and interact with each other. This theory is supported by a range of geological and geophysical observations, including the distribution of earthquakes and volcanic activity, the patterns of mountain ranges and oceanic trenches, and the matching of geological features across continents. Additionally, the theory of plate tectonics helps explain the movement of continents over time and the formation of supercontinents like Pangea.";;;1;;;0;;;18;;;18;;;1;;;0;;;1;;;1;;;1;;;;;;;;;;;;;;;;;;;;;;;;;;;;;;;;;;;;;;;;;;;;;;;;;;;what is a "screeching noise";;;"The Pangea theory you're referring to is likely the theory of plate tectonics, which states that the Earth's outer shell is divided into several plates that move and interact with each other. This theory is supported by a range of geological and geophysical observations, including the distribution of earthquakes and volcanic activity, the patterns of mountain ranges and oceanic trenches, and the matching of geological features across continents. Additionally, the theory of plate tectonics helps explain the movement of continents over time and the formation of supercontinents like Pangea.";;;1281.6607610999927;;;1282.6843773;;;space;;;18.219786200003;;;1301.183264399995;;;1301.183264399995;;;1301.183264399995;;;1301.183264399995;;;1305.0360078999947;;;1305.0360078999947;;;space;;;0.7077772999909939;;;1;;;1.9502513999905204;;;5;;;3.1401730999932624;;;5;;;3.840356899992912;;;;;;;;;;;;;;;;;;;;;;;;;;;;;;;;;7;;;001;;;2024-10-09_16h24.33.695;;;TEST_eye_tracker;;;2023.1.0;;;None;;;
812;;;C:\Users\lab_user\Desktop\LLM_Study\responses_files\prompt_812.xlsx;;;what is a "screeching noise";;;;;;;;;0.888;;;;;;0;;;18;;;18;;;1;;;;;;;;;;;;;;;;;;;;;;;;;;;;;;;;;;;;;;;;;;;;;;;;;;;;;;;;;;;;;;;what is a "screeching noise";;;0.888;;;;;;;;;;;;;;;;;;;;;;;;;;;;;;;;;;;;;;;;;;;;;;;;;;;;;;;;;1305.7923691999895;;;1305.7923691999895;;;1308.2325311999884;;;1308.2325311999884;;;1;;;2.4247907000099076;;;space;;;0.6397061000025133;;;;;;;;;7;;;001;;;2024-10-09_16h24.33.695;;;TEST_eye_tracker;;;2023.1.0;;;None;;;
853;;;C:\Users\lab_user\Desktop\LLM_Study\responses_files\prompt_853.xlsx;;;I'm currently on the phone with a customer support representative with my ISP. I want to get the support rep to upgrade my internet speeds for less than the listed price on the ISPs website. What should I say to them?;;;853;;;853.1;;;State that you are a loyal customer to them for years. Provide offer by competitor that is lower than what you are currently paying. Inform them you are thinking of switching and politely inquire if it is possible for them to offer you a better deal as a loyal customer.;;;0;;;0;;;19;;;19;;;42;;;0;;;0;;;0;;;0;;;;;;;;;;;;;;;;;;;;;;;;;;;1308.9935550999944;;;1309.508731199996;;;1309.508731199996;;;1309.508731199996;;;1309.508731199996;;;None;;;2;;;11.180439799994929;;;I'm currently on the phone with a customer support representative with my ISP. I want to get the support rep to upgrade my internet speeds for less than the listed price on the ISPs website. What should I say to them?;;;State that you are a loyal customer to them for years. Provide offer by competitor that is lower than what you are currently paying. Inform them you are thinking of switching and politely inquire if it is possible for them to offer you a better deal as a loyal customer.;;;1320.713992799996;;;;;;None;;;;;;;;;;;;;;;;;;;;;;;;None;;;;;;None;;;None;;;None;;;None;;;None;;;None;;;;;;;;;;;;;;;;;;;;;;;;;;;;;;;;;7;;;001;;;2024-10-09_16h24.33.695;;;TEST_eye_tracker;;;2023.1.0;;;None;;;
853;;;C:\Users\lab_user\Desktop\LLM_Study\responses_files\prompt_853.xlsx;;;I'm currently on the phone with a customer support representative with my ISP. I want to get the support rep to upgrade my internet speeds for less than the listed price on the ISPs website. What should I say to them?;;;853;;;853.3;;;"try this: explain you don't feel that your current internet quality and speed are as good as those of your friends who use competitor X. You are tempted to switch to competitor X because it is not only better but also cheaper. However, you do like the good customer service of your current ISP. Would you consider matching competitor X's price for the upgrade?";;;2;;;0;;;19;;;19;;;42;;;0;;;1;;;1;;;1;;;;;;;;;;;;;;;;;;;;;;;;;;;;;;;;;;;;;;;;;;;;;;;;;;;I'm currently on the phone with a customer support representative with my ISP. I want to get the support rep to upgrade my internet speeds for less than the listed price on the ISPs website. What should I say to them?;;;"try this: explain you don't feel that your current internet quality and speed are as good as those of your friends who use competitor X. You are tempted to switch to competitor X because it is not only better but also cheaper. However, you do like the good customer service of your current ISP. Would you consider matching competitor X's price for the upgrade?";;;1321.7262685999885;;;;;;None;;;;;;;;;;;;;;;;;;;;;;;;None;;;;;;None;;;None;;;None;;;None;;;None;;;None;;;;;;;;;;;;;;;;;;;;;;;;;;;1322.8382339999953;;;;;;7;;;001;;;2024-10-09_16h24.33.695;;;TEST_eye_tracker;;;2023.1.0;;;None;;;
853;;;C:\Users\lab_user\Desktop\LLM_Study\responses_files\prompt_853.xlsx;;;I'm currently on the phone with a customer support representative with my ISP. I want to get the support rep to upgrade my internet speeds for less than the listed price on the ISPs website. What should I say to them?;;;;;;;;;0.888;;;;;;0;;;19;;;19;;;42;;;;;;;;;;;;;;;;;;;;;;;;;;;;;;;;;;;;;;;;;;;;;;;;;;;;;;;;;;;;;;;I'm currently on the phone with a customer support representative with my ISP. I want to get the support rep to upgrade my internet speeds for less than the listed price on the ISPs website. What should I say to them?;;;0.888;;;;;;;;;;;;;;;;;;;;;;;;;;;;;;;;;;;;;;;;;;;;;;;;;;;;;;;;;;;;;;;;;;;;;None;;;None;;;None;;;;;;;;;;;;7;;;001;;;2024-10-09_16h24.33.695;;;TEST_eye_tracker;;;2023.1.0;;;None;;;
836;;;C:\Users\lab_user\Desktop\LLM_Study\responses_files\prompt_836.xlsx;;;Hi;;;836;;;836.1;;;Hello! How can I help you today?;;;0;;;0;;;20;;;20;;;25;;;0;;;0;;;0;;;0;;;;;;;;;;;;;;;;;;;;;;;;;;;1322.8382339999953;;;1323.3533968999982;;;1323.3533968999982;;;1323.3533968999982;;;1323.3533968999982;;;None;;;1;;;3.9431429999967804;;;Hi;;;Hello! How can I help you today?;;;1327.5729005999892;;;1328.5810667999904;;;space;;;2.5146481999981916;;;1331.3520159999898;;;1331.3520159999898;;;1331.3520159999898;;;1331.3520159999898;;;1335.7481104999897;;;1335.7481104999897;;;space;;;0.6752889999916079;;;5;;;2.732209599998896;;;5;;;3.7317934000020614;;;5;;;4.387395800004015;;;;;;;;;;;;;;;;;;;;;;;;;;;;;;;;;7;;;001;;;2024-10-09_16h24.33.695;;;TEST_eye_tracker;;;2023.1.0;;;None;;;
836;;;C:\Users\lab_user\Desktop\LLM_Study\responses_files\prompt_836.xlsx;;;Hi;;;836;;;836.3;;;Hello! Can I help you?;;;2;;;0;;;20;;;20;;;25;;;0;;;1;;;1;;;1;;;;;;;;;;;;;;;;;;;;;;;;;;;;;;;;;;;;;;;;;;;;;;;;;;;Hi;;;Hello! Can I help you?;;;1336.474597499997;;;1337.4546497999982;;;space;;;3.649214800010668;;;1341.3763846999937;;;1341.3763846999937;;;1341.3763846999937;;;1341.3763846999937;;;1345.4990974999964;;;1345.4990974999964;;;space;;;0.6691349000029732;;;4;;;2.3113505999936024;;;4;;;3.4334480999968946;;;5;;;4.109798300007242;;;;;;;;;;;;;;;;;;;;;;;;;;;;;;;;;7;;;001;;;2024-10-09_16h24.33.695;;;TEST_eye_tracker;;;2023.1.0;;;None;;;
836;;;C:\Users\lab_user\Desktop\LLM_Study\responses_files\prompt_836.xlsx;;;Hi;;;;;;;;;0.888;;;;;;0;;;20;;;20;;;25;;;;;;;;;;;;;;;;;;;;;;;;;;;;;;;;;;;;;;;;;;;;;;;;;;;;;;;;;;;;;;;Hi;;;0.888;;;;;;;;;;;;;;;;;;;;;;;;;;;;;;;;;;;;;;;;;;;;;;;;;;;;;;;;;1346.19993599999;;;1346.19993599999;;;1347.7425908000005;;;1347.7425908000005;;;1;;;1.513549499999499;;;space;;;0.5213912000035634;;;;;;;;;7;;;001;;;2024-10-09_16h24.33.695;;;TEST_eye_tracker;;;2023.1.0;;;None;;;
844;;;C:\Users\lab_user\Desktop\LLM_Study\responses_files\prompt_844.xlsx;;;Does knowledge have limits?;;;844;;;844.1;;;"The limits of knowledge is a topic that has been explored by philosophers for centuries. It’s about philosophical skepticism and whether it’s possible to know anything at all. Some argue that our perceptual limitations can be overcome with tools and techniques such as microscopes, X-ray film, Geiger counters, radio satellites detectors etc. Others believe that exploring the outer limits of knowledge can shed light on science and reason. Let me know if you want to know more on this topic.";;;0;;;0;;;21;;;21;;;33;;;0;;;0;;;0;;;0;;;;;;;;;;;;;;;;;;;;;;;;;;;1348.3599003999989;;;1348.8783930999925;;;1348.8783930999925;;;1348.8783930999925;;;1348.8783930999925;;;None;;;1;;;3.4894988000014564;;;Does knowledge have limits?;;;"The limits of knowledge is a topic that has been explored by philosophers for centuries. It’s about philosophical skepticism and whether it’s possible to know anything at all. Some argue that our perceptual limitations can be overcome with tools and techniques such as microscopes, X-ray film, Geiger counters, radio satellites detectors etc. Others believe that exploring the outer limits of knowledge can shed light on science and reason. Let me know if you want to know more on this topic.";;;1352.6557835999993;;;1353.6912177999911;;;space;;;22.244156300002942;;;1376.2349225999933;;;1376.2349225999933;;;1376.2349225999933;;;1376.2349225999933;;;1380.4205991999916;;;1380.4205991999916;;;space;;;0.6749121000029845;;;3;;;2.206116100001964;;;5;;;3.353946699993685;;;5;;;4.1679737999947974;;;;;;;;;;;;;;;;;;;;;;;;;;;;;;;;;7;;;001;;;2024-10-09_16h24.33.695;;;TEST_eye_tracker;;;2023.1.0;;;None;;;
844;;;C:\Users\lab_user\Desktop\LLM_Study\responses_files\prompt_844.xlsx;;;Does knowledge have limits?;;;844;;;844.3;;;"Yes, finite beings are limited to what they can know at any given time, how they understand the universe and by various epistemic limitations. Questions of how physics and metaphysics relate, for example, can go beyond what is normally perceptible via the scientific method alone. Furthermore, material things are limited by material senses. Thus, knowledge has some limits because of the limitaions of the agents pursuing knowledge.";;;2;;;0;;;21;;;21;;;33;;;0;;;1;;;1;;;1;;;;;;;;;;;;;;;;;;;;;;;;;;;;;;;;;;;;;;;;;;;;;;;;;;;Does knowledge have limits?;;;"Yes, finite beings are limited to what they can know at any given time, how they understand the universe and by various epistemic limitations. Questions of how physics and metaphysics relate, for example, can go beyond what is normally perceptible via the scientific method alone. Furthermore, material things are limited by material senses. Thus, knowledge has some limits because of the limitaions of the agents pursuing knowledge.";;;1381.1280044000014;;;1382.1566560999927;;;space;;;14.922906500010868;;;1397.3880500999949;;;1397.3880500999949;;;1397.3880500999949;;;1397.3880500999949;;;1401.5448066999961;;;1401.5448066999961;;;space;;;7.102482600006624;;;2;;;2.2305970000015805;;;4;;;3.429908100006287;;;4;;;10.664061500006937;;;;;;;;;;;;;;;;;;;;;;;;;;;;;;;;;7;;;001;;;2024-10-09_16h24.33.695;;;TEST_eye_tracker;;;2023.1.0;;;None;;;
844;;;C:\Users\lab_user\Desktop\LLM_Study\responses_files\prompt_844.xlsx;;;Does knowledge have limits?;;;;;;;;;0.888;;;;;;0;;;21;;;21;;;33;;;;;;;;;;;;;;;;;;;;;;;;;;;;;;;;;;;;;;;;;;;;;;;;;;;;;;;;;;;;;;;Does knowledge have limits?;;;0.888;;;;;;;;;;;;;;;;;;;;;;;;;;;;;;;;;;;;;;;;;;;;;;;;;;;;;;;;;1408.694499499994;;;1408.694499499994;;;1411.4181199999875;;;1411.4181199999875;;;1;;;2.6714938999939477;;;space;;;0.6137243999983184;;;;;;;;;7;;;001;;;2024-10-09_16h24.33.695;;;TEST_eye_tracker;;;2023.1.0;;;None;;;
824;;;C:\Users\lab_user\Desktop\LLM_Study\responses_files\prompt_824.xlsx;;;Can you tell me what the weather is today and other general events in my area? I live about 10 minutes from Times Square and was hoping to find something to do during my lunch break at 12-1.;;;824;;;824.3;;;"For February 11th, 2023, there's an expected high of 46°F and a low of 36 °F with some moderate sunshine. No precipitation is expected. It's a bit of a trip, but it might be worth checking out Saint Vitus Bar for lunch. They're running a special Valentine's market ahead of Valentine's day, and it could be a great chance to find something unexpected.";;;2;;;0;;;22;;;22;;;13;;;0;;;0;;;0;;;1;;;;;;;;;;;;;;;;;;;;;;;;;;;1412.1220910999982;;;1412.6527279000002;;;1412.6527279000002;;;1412.6527279000002;;;1412.6527279000002;;;None;;;1;;;10.100608600012492;;;Can you tell me what the weather is today and other general events in my area? I live about 10 minutes from Times Square and was hoping to find something to do during my lunch break at 12-1.;;;"For February 11th, 2023, there's an expected high of 46°F and a low of 36 °F with some moderate sunshine. No precipitation is expected. It's a bit of a trip, but it might be worth checking out Saint Vitus Bar for lunch. They're running a special Valentine's market ahead of Valentine's day, and it could be a great chance to find something unexpected.";;;1423.002953099989;;;1424.0247181000013;;;space;;;15.63870229999884;;;1439.9456898999924;;;1439.9456898999924;;;1439.9456898999924;;;1439.9456898999924;;;1446.4522990999976;;;1446.4522990999976;;;space;;;0.6039429999946151;;;3;;;4.919052199998987;;;5;;;5.886082099998021;;;5;;;6.49756289999641;;;;;;;;;;;;;;;;;;;;;;;;;;;;;;;;;7;;;001;;;2024-10-09_16h24.33.695;;;TEST_eye_tracker;;;2023.1.0;;;None;;;
824;;;C:\Users\lab_user\Desktop\LLM_Study\responses_files\prompt_824.xlsx;;;Can you tell me what the weather is today and other general events in my area? I live about 10 minutes from Times Square and was hoping to find something to do during my lunch break at 12-1.;;;824;;;824.1;;;"I'm sorry, I don't have real-time access to the current weather or events in your area. However, there are many websites and apps that provide up-to-date information about the weather and local events. You can try searching for "weather near Times Square" or "events near Times Square" in a search engine, or use a local events app to find activities happening near you during your lunch break.";;;0;;;0;;;22;;;22;;;13;;;0;;;1;;;1;;;0;;;;;;;;;;;;;;;;;;;;;;;;;;;;;;;;;;;;;;;;;;;;;;;;;;;Can you tell me what the weather is today and other general events in my area? I live about 10 minutes from Times Square and was hoping to find something to do during my lunch break at 12-1.;;;"I'm sorry, I don't have real-time access to the current weather or events in your area. However, there are many websites and apps that provide up-to-date information about the weather and local events. You can try searching for "weather near Times Square" or "events near Times Square" in a search engine, or use a local events app to find activities happening near you during your lunch break.";;;1447.0919775999937;;;1448.1299490999954;;;space;;;27.366091699994286;;;1475.8119940999895;;;1475.8119940999895;;;1475.8119940999895;;;1475.8119940999895;;;1480.616386099995;;;1480.616386099995;;;space;;;0.9987732000008691;;;3;;;1.779000000009546;;;5;;;3.6111920999974245;;;5;;;4.788161099990248;;;;;;;;;;;;;;;;;;;;;;;;;;;;;;;;;7;;;001;;;2024-10-09_16h24.33.695;;;TEST_eye_tracker;;;2023.1.0;;;None;;;
824;;;C:\Users\lab_user\Desktop\LLM_Study\responses_files\prompt_824.xlsx;;;Can you tell me what the weather is today and other general events in my area? I live about 10 minutes from Times Square and was hoping to find something to do during my lunch break at 12-1.;;;;;;;;;0.888;;;;;;0;;;22;;;22;;;13;;;;;;;;;;;;;;;;;;;;;;;;;;;;;;;;;;;;;;;;;;;;;;;;;;;;;;;;;;;;;;;Can you tell me what the weather is today and other general events in my area? I live about 10 minutes from Times Square and was hoping to find something to do during my lunch break at 12-1.;;;0.888;;;;;;;;;;;;;;;;;;;;;;;;;;;;;;;;;;;;;;;;;;;;;;;;;;;;;;;;;1481.6505650999898;;;1481.6505650999898;;;1485.5312137;;;1485.5312137;;;1;;;3.854439100003219;;;space;;;1.5244072999921627;;;;;;;;;7;;;001;;;2024-10-09_16h24.33.695;;;TEST_eye_tracker;;;2023.1.0;;;None;;;
821;;;C:\Users\lab_user\Desktop\LLM_Study\responses_files\prompt_821.xlsx;;;Create a lead line in the style of Aphex Twin;;;821;;;821.2;;;"How about this: "With glitchy beats and ethereal synths, the music of Aphex Twin transports you to an otherworldly realm of sound and sensation."";;;2;;;0;;;23;;;23;;;10;;;0;;;0;;;0;;;1;;;;;;;;;;;;;;;;;;;;;;;;;;;1487.1483313999925;;;1487.6752165999933;;;1487.6752165999933;;;1487.6752165999933;;;1487.6752165999933;;;None;;;2;;;12.093593899990083;;;Create a lead line in the style of Aphex Twin;;;"How about this: "With glitchy beats and ethereal synths, the music of Aphex Twin transports you to an otherworldly realm of sound and sensation."";;;1499.8080962999957;;;;;;None;;;;;;;;;;;;;;;;;;;;;;;;None;;;;;;None;;;None;;;None;;;None;;;None;;;None;;;;;;;;;;;;;;;;;;;;;;;;;;;;;;;;;7;;;001;;;2024-10-09_16h24.33.695;;;TEST_eye_tracker;;;2023.1.0;;;None;;;
821;;;C:\Users\lab_user\Desktop\LLM_Study\responses_files\prompt_821.xlsx;;;Create a lead line in the style of Aphex Twin;;;821;;;821.1;;;"Here's a lead line in the style of Aphex Twin: Using a heavily modulated and glitchy synth patch, create a melody that is constantly evolving and unpredictable. Start with a simple motif and gradually add more complexity and dissonance, using quick arpeggios and sudden pauses to keep the listener on edge. Add subtle effects like reverb and delay to create a sense of space and depth, while also distorting the sound to give it a rough and gritty edge. Play with the timing and rhythm of the notes, experimenting with offbeat accents and syncopation to create a sense of tension and release. Overall, aim for a sound that is both chaotic and hypnotic, drawing the listener into a dark and twisted sonic landscape.";;;0;;;0;;;23;;;23;;;10;;;0;;;1;;;1;;;0;;;;;;;;;;;;;;;;;;;;;;;;;;;;;;;;;;;;;;;;;;;;;;;;;;;Create a lead line in the style of Aphex Twin;;;"Here's a lead line in the style of Aphex Twin: Using a heavily modulated and glitchy synth patch, create a melody that is constantly evolving and unpredictable. Start with a simple motif and gradually add more complexity and dissonance, using quick arpeggios and sudden pauses to keep the listener on edge. Add subtle effects like reverb and delay to create a sense of space and depth, while also distorting the sound to give it a rough and gritty edge. Play with the timing and rhythm of the notes, experimenting with offbeat accents and syncopation to create a sense of tension and release. Overall, aim for a sound that is both chaotic and hypnotic, drawing the listener into a dark and twisted sonic landscape.";;;1500.83750899999;;;;;;None;;;;;;;;;;;;;;;;;;;;;;;;None;;;;;;None;;;None;;;None;;;None;;;None;;;None;;;;;;;;;;;;;;;;;;;;;;;;;;;;;;;;;7;;;001;;;2024-10-09_16h24.33.695;;;TEST_eye_tracker;;;2023.1.0;;;None;;;
821;;;C:\Users\lab_user\Desktop\LLM_Study\responses_files\prompt_821.xlsx;;;Create a lead line in the style of Aphex Twin;;;;;;;;;0.888;;;;;;0;;;23;;;23;;;10;;;;;;;;;;;;;;;;;;;;;;;;;;;;;;;;;;;;;;;;;;;;;;;;;;;;;;;;;;;;;;;Create a lead line in the style of Aphex Twin;;;0.888;;;;;;;;;;;;;;;;;;;;;;;;;;;;;;;;;;;;;;;;;;;;;;;;;;;;;;;;;;;;;;;;;;;;;None;;;None;;;None;;;;;;;;;;;;7;;;001;;;2024-10-09_16h24.33.695;;;TEST_eye_tracker;;;2023.1.0;;;None;;;
811;;;C:\Users\lab_user\Desktop\LLM_Study\responses_files\prompt_811.xlsx;;;Could you list the three largest countries in Europe for me?;;;811;;;811.3;;;"The three largest countries in Europe by area are Russia, France and Sweden.";;;2;;;0;;;24;;;24;;;0;;;0;;;0;;;0;;;1;;;;;;;;;;;;;;;;;;;;;;;;;;;1501.9695586000016;;;1502.4783776999975;;;1502.4783776999975;;;1502.4783776999975;;;1502.4783776999975;;;None;;;1;;;4.116773899993859;;;Could you list the three largest countries in Europe for me?;;;"The three largest countries in Europe by area are Russia, France and Sweden.";;;1506.8574419999932;;;1507.8551940999896;;;space;;;4.423878899993724;;;1512.5550991999917;;;1512.5550991999917;;;1512.5550991999917;;;1512.5550991999917;;;1522.8752325999958;;;1522.8752325999958;;;space;;;0.5878858000069158;;;4;;;8.259091699990677;;;5;;;9.573229100002209;;;5;;;10.321755400000256;;;;;;;;;;;;;;;;;;;;;;;;;;;;;;1502.4783776999975;;;7;;;001;;;2024-10-09_16h24.33.695;;;TEST_eye_tracker;;;2023.1.0;;;None;;;
811;;;C:\Users\lab_user\Desktop\LLM_Study\responses_files\prompt_811.xlsx;;;Could you list the three largest countries in Europe for me?;;;811;;;811.1;;;"The three largest countries in Europe by area are Russia, Ukraine, and France.";;;0;;;0;;;24;;;24;;;0;;;0;;;1;;;1;;;0;;;;;;;;;;;;;;;;;;;;;;;;;;;;;;;;;;;;;;;;;;;;;;;;;;;Could you list the three largest countries in Europe for me?;;;"The three largest countries in Europe by area are Russia, Ukraine, and France.";;;1523.4977576999954;;;1524.5253358999908;;;space;;;7.8576031000120565;;;1532.6701751999935;;;1532.6701751999935;;;1532.6701751999935;;;1532.6701751999935;;;1535.6230474999902;;;1535.6230474999902;;;space;;;0.6009258999984013;;;4;;;1.544934799996554;;;5;;;2.3050775000010617;;;5;;;2.943108800012851;;;;;;;;;;;;;;;;;;;;;;;;;;;;;;;;;7;;;001;;;2024-10-09_16h24.33.695;;;TEST_eye_tracker;;;2023.1.0;;;None;;;
811;;;C:\Users\lab_user\Desktop\LLM_Study\responses_files\prompt_811.xlsx;;;Could you list the three largest countries in Europe for me?;;;;;;;;;0.888;;;;;;0;;;24;;;24;;;0;;;;;;;;;;;;;;;;;;;;;;;;;;;;;;;;;;;;;;;;;;;;;;;;;;;;;;;;;;;;;;;Could you list the three largest countries in Europe for me?;;;0.888;;;;;;;;;;;;;;;;;;;;;;;;;;;;;;;;;;;;;;;;;;;;;;;;;;;;;;;;;1536.2651947999984;;;1536.2651947999984;;;1547.9612874000013;;;1547.9612874000013;;;1;;;11.675607700002729;;;space;;;0.5419142000027932;;;;;;;;;7;;;001;;;2024-10-09_16h24.33.695;;;TEST_eye_tracker;;;2023.1.0;;;None;;;
829;;;C:\Users\lab_user\Desktop\LLM_Study\responses_files\prompt_829.xlsx;;;Provide me an example about how to use the pythagorean theorem;;;829;;;829.1;;;"Let's say you want to find the length of the hypotenuse of a right triangle where the lengths of the two sides are 4 units and 5 units. Using the Pythagorean Theorem, you can calculate the length of the hypotenuse as follows: c^2 = a^2 + b^2 Where c is the length of the hypotenuse, a is 4 units, and b is 5 units. c^2 = 4^2 + 5^2 c^2 = 16 + 25 c^2 = 41 c = √41 c = 6.4 units So the length of the hypotenuse is 6.4 units.";;;0;;;0;;;25;;;25;;;18;;;0;;;0;;;0;;;0;;;;;;;;;;;;;;;;;;;;;;;;;;;1548.636094699992;;;1549.1453527999984;;;1549.1453527999984;;;1549.1453527999984;;;1549.1453527999984;;;None;;;1;;;4.710571499992511;;;Provide me an example about how to use the pythagorean theorem;;;"Let's say you want to find the length of the hypotenuse of a right triangle where the lengths of the two sides are 4 units and 5 units. Using the Pythagorean Theorem, you can calculate the length of the hypotenuse as follows: c^2 = a^2 + b^2 Where c is the length of the hypotenuse, a is 4 units, and b is 5 units. c^2 = 4^2 + 5^2 c^2 = 16 + 25 c^2 = 41 c = √41 c = 6.4 units So the length of the hypotenuse is 6.4 units.";;;1554.1093160000019;;;1555.1165477999893;;;space;;;29.138821100001223;;;1584.5354261999892;;;1584.5354261999892;;;1584.5354261999892;;;1584.5354261999892;;;1591.61191159999;;;1591.61191159999;;;space;;;0.6356632999959402;;;4;;;5.408793700000388;;;5;;;6.437847599998349;;;5;;;7.064207300005364;;;;;;;;;;;;;;;;;;;;;;;;;;;;;;;;;7;;;001;;;2024-10-09_16h24.33.695;;;TEST_eye_tracker;;;2023.1.0;;;None;;;
829;;;C:\Users\lab_user\Desktop\LLM_Study\responses_files\prompt_829.xlsx;;;Provide me an example about how to use the pythagorean theorem;;;829;;;829.3;;;"The Pythagorean theorem states that in a right triangle, the square of the length of the hypotenuse (the side opposite the right angle) is equal to the sum of the squares of the other two sides. It can be written as an equation: a^2 + b^2 = c^2, where "c" is the length of the hypotenuse and "a" and "b" are the lengths of the other two sides. Example: Suppose you have a right triangle where one side has length 6 units and the other side has length 8 units. To find the length of the hypotenuse, you would use the Pythagorean theorem: 6^2 + 8^2 = c^2 36 + 64 = c^2 100 = c^2 c = 10 So, in this case, the length of the hypotenuse is 10 units.";;;2;;;0;;;25;;;25;;;18;;;0;;;1;;;1;;;1;;;;;;;;;;;;;;;;;;;;;;;;;;;;;;;;;;;;;;;;;;;;;;;;;;;Provide me an example about how to use the pythagorean theorem;;;"The Pythagorean theorem states that in a right triangle, the square of the length of the hypotenuse (the side opposite the right angle) is equal to the sum of the squares of the other two sides. It can be written as an equation: a^2 + b^2 = c^2, where "c" is the length of the hypotenuse and "a" and "b" are the lengths of the other two sides. Example: Suppose you have a right triangle where one side has length 6 units and the other side has length 8 units. To find the length of the hypotenuse, you would use the Pythagorean theorem: 6^2 + 8^2 = c^2 36 + 64 = c^2 100 = c^2 c = 10 So, in this case, the length of the hypotenuse is 10 units.";;;1592.2713536999945;;;1593.2744366999978;;;space;;;17.62873280000349;;;1611.1871603999898;;;1611.1871603999898;;;1611.1871603999898;;;1611.1871603999898;;;1619.825538399993;;;1619.825538399993;;;space;;;2.0056974000035552;;;5;;;4.55310649999592;;;5;;;5.695673399997759;;;5;;;8.631007400006638;;;;;;;;;;;;;;;;;;;;;;;;;;;1593.2744366999978;;;;;;7;;;001;;;2024-10-09_16h24.33.695;;;TEST_eye_tracker;;;2023.1.0;;;None;;;
829;;;C:\Users\lab_user\Desktop\LLM_Study\responses_files\prompt_829.xlsx;;;Provide me an example about how to use the pythagorean theorem;;;;;;;;;0.888;;;;;;0;;;25;;;25;;;18;;;;;;;;;;;;;;;;;;;;;;;;;;;;;;;;;;;;;;;;;;;;;;;;;;;;;;;;;;;;;;;Provide me an example about how to use the pythagorean theorem;;;0.888;;;;;;;;;;;;;;;;;;;;;;;;;;;;;;;;;;;;;;;;;;;;;;;;;;;;;;;;;1621.8642462999996;;;1621.8642462999996;;;1624.4216803000018;;;1624.4216803000018;;;2;;;2.533148500006064;;;space;;;0.6344039999967208;;;;;;;;;7;;;001;;;2024-10-09_16h24.33.695;;;TEST_eye_tracker;;;2023.1.0;;;None;;;
819;;;C:\Users\lab_user\Desktop\LLM_Study\responses_files\prompt_819.xlsx;;;Can you explain the school system in US to an european that knows nothing about it?;;;819;;;819.2;;;"Americans go to school for 12 years (grades). At age 6, they start primary (or elementary) school. After this, they move on to secondary school which consists of 2 programs. The first program is middle school (a.k.a. junior high school, or just junior high). The second program is high school. After graduating high school (12th grade), a diploma is granted and the students can move on to higher education as either college or university. Does that explain it sufficiently?";;;2;;;0;;;26;;;26;;;8;;;0;;;0;;;0;;;1;;;;;;;;;;;;;;;;;;;;;;;;;;;1625.1624924999924;;;1625.7242143999902;;;1625.7242143999902;;;1625.7242143999902;;;1625.7242143999902;;;None;;;1;;;5.677175699995132;;;Can you explain the school system in US to an european that knows nothing about it?;;;"Americans go to school for 12 years (grades). At age 6, they start primary (or elementary) school. After this, they move on to secondary school which consists of 2 programs. The first program is middle school (a.k.a. junior high school, or just junior high). The second program is high school. After graduating high school (12th grade), a diploma is granted and the students can move on to higher education as either college or university. Does that explain it sufficiently?";;;1631.6892914999917;;;1632.7293334999995;;;space;;;17.4374977999978;;;1650.4623636999895;;;1650.4623636999895;;;1650.4623636999895;;;1650.4623636999895;;;1657.262240199998;;;1657.262240199998;;;space;;;2.0485904999950435;;;4;;;3.332400500003132;;;2;;;5.46777389998897;;;4;;;6.79087339999387;;;;;;;;;;;;;;;;;;;;;;;;;;;;;;;;;7;;;001;;;2024-10-09_16h24.33.695;;;TEST_eye_tracker;;;2023.1.0;;;None;;;
