n_prompt;;;prompt_file;;;prompt_text;;;related_prompt;;;n_resp;;;resp_text;;;rank;;;Trial.thisRepN;;;Trial.thisTrialN;;;Trial.thisN;;;Trial.thisIndex;;;per_answer.thisRepN;;;per_answer.thisTrialN;;;per_answer.thisN;;;per_answer.thisIndex;;;key_resp_5.started;;;textbox.started;;;key_resp_5.keys;;;key_resp_5.rt;;;textbox_2.started;;;key_resp_8.started;;;key_resp_8.keys;;;key_resp_8.rt;;;text.started;;;Prompt_.started;;;key_resp_4.started;;;slider_skip.started;;;text_4.started;;;key_resp_4.keys;;;key_resp_4.rt;;;slider_skip.response;;;slider_skip.rt;;;prompt_text;;;resp_text;;;cross_white.started;;;key_resp_2.started;;;key_resp_2.keys;;;key_resp_2.rt;;;question_useful_2.started;;;quality.started;;;rude_polite.started;;;ViolentHarmless.started;;;key_resp_6.started;;;press_space.started;;;key_resp_6.keys;;;key_resp_6.rt;;;quality.response;;;quality.rt;;;rude_polite.response;;;rude_polite.rt;;;ViolentHarmless.response;;;ViolentHarmless.rt;;;question_ranking.started;;;ranking_better.started;;;key_resp_7.started;;;text_2.started;;;ranking_better.response;;;ranking_better.rt;;;key_resp_7.keys;;;key_resp_7.rt;;;cross_white.stopped;;;text.stopped;;;participant;;;session;;;date;;;expName;;;psychopyVersion;;;frameRate;;;
;;;;;;;;;;;;;;;;;;;;;;;;;;;;;;;;;;;;;;;;;;;;;37.57701830001315;;;37.57701830001315;;;space;;;6.540590399992652;;;;;;;;;;;;;;;;;;;;;;;;;;;;;;;;;;;;;;;;;;;;;;;;;;;;;;;;;;;;;;;;;;;;;;;;;;;;;;;;;;;;;;;;;;;;;;;;;;;;;;;;;;;;;;;;;;;;;;;;;;;;;;;;;;;;5;;;1;;;2023-11-07_12h22.00.358;;;TEST_eye_tracker;;;2023.1.0;;;None;;;
;;;;;;;;;;;;;;;;;;;;;;;;;;;;;;;;;;;;;;;;;;;;;;;;;;;;;;;;;44.18074159999378;;;44.18074159999378;;;space;;;1.4724335999926552;;;;;;;;;;;;;;;;;;;;;;;;;;;;;;;;;;;;;;;;;;;;;;;;;;;;;;;;;;;;;;;;;;;;;;;;;;;;;;;;;;;;;;;;;;;;;;;;;;;;;;;;;;;;;;;;;;;;;;;;5;;;1;;;2023-11-07_12h22.00.358;;;TEST_eye_tracker;;;2023.1.0;;;None;;;
563;;;C:\Users\hi03096\Documents\LLM_EyeTracking_study\responses_files\prompt_563.xlsx;;;"What is the difference between a hurricane, typhoon, and a tropical cyclone and how are they classified?";;;563;;;563.3;;;"According to the definition at https://www.redcross.org/get-help/how-to-prepare-for-emergencies/types-of-emergencies/hurricane/hurricane-vs-typhoon.html, the classification depends on where the storm is. * If it’s above the North Atlantic, central North Pacific or eastern North Pacific oceans (Florida, Caribbean Islands, Texas, Hawaii, etc.), it is called a hurricane. * If it hovers over the Northwest Pacific Ocean (usually East Asia), it is called a typhoon. * If it’s circling over any other region, it is called a tropical cyclone.";;;2;;;0;;;0;;;0;;;22;;;0;;;0;;;0;;;1;;;;;;;;;;;;;;;;;;;;;;;;;;;45.75215020001633;;;47.71264039998641;;;47.71264039998641;;;47.71264039998641;;;47.71264039998641;;;space;;;10.348905199964065;;;1;;;9.755268199951388;;;"What is the difference between a hurricane, typhoon, and a tropical cyclone and how are they classified?";;;"According to the definition at https://www.redcross.org/get-help/how-to-prepare-for-emergencies/types-of-emergencies/hurricane/hurricane-vs-typhoon.html, the classification depends on where the storm is. * If it’s above the North Atlantic, central North Pacific or eastern North Pacific oceans (Florida, Caribbean Islands, Texas, Hawaii, etc.), it is called a hurricane. * If it hovers over the Northwest Pacific Ocean (usually East Asia), it is called a typhoon. * If it’s circling over any other region, it is called a tropical cyclone.";;;58.13833149999846;;;59.24104380002245;;;space;;;25.996549500036053;;;85.47875479998766;;;85.47875479998766;;;85.47875479998766;;;85.47875479998766;;;90.19376579998061;;;90.19376579998061;;;space;;;8.283805500017479;;;5;;;9.129156499984674;;;5;;;3.7784146000049077;;;5;;;4.65458440000657;;;;;;;;;;;;;;;;;;;;;;;;;;;;;;;;;5;;;1;;;2023-11-07_12h22.00.358;;;TEST_eye_tracker;;;2023.1.0;;;None;;;
563;;;C:\Users\hi03096\Documents\LLM_EyeTracking_study\responses_files\prompt_563.xlsx;;;"What is the difference between a hurricane, typhoon, and a tropical cyclone and how are they classified?";;;563;;;563.1;;;"Hurricane, typhoon, and tropical cyclone are different names for the same weather phenomenon. A tropical cyclone is a rotating storm system characterized by low atmospheric pressure and strong winds. The term "hurricane" is used in the Atlantic Ocean and northeastern Pacific Ocean, while the term "typhoon" is used in the western Pacific Ocean. Classification of these storms is based on their wind speed. Tropical storms are storms with winds between 39 and 73 mph, while hurricanes and typhoons are classified as storms with winds greater than 74 mph. Additionally, a storm may be further classified as a Category 1, 2, 3, 4, or 5 hurricane or typhoon, with Category 5 being the most intense.";;;0;;;0;;;0;;;0;;;22;;;0;;;1;;;1;;;0;;;;;;;;;;;;;;;;;;;;;;;;;;;;;;;;;;;;;;;;;;;;;;;;;;;;;;"What is the difference between a hurricane, typhoon, and a tropical cyclone and how are they classified?";;;"Hurricane, typhoon, and tropical cyclone are different names for the same weather phenomenon. A tropical cyclone is a rotating storm system characterized by low atmospheric pressure and strong winds. The term "hurricane" is used in the Atlantic Ocean and northeastern Pacific Ocean, while the term "typhoon" is used in the western Pacific Ocean. Classification of these storms is based on their wind speed. Tropical storms are storms with winds between 39 and 73 mph, while hurricanes and typhoons are classified as storms with winds greater than 74 mph. Additionally, a storm may be further classified as a Category 1, 2, 3, 4, or 5 hurricane or typhoon, with Category 5 being the most intense.";;;98.54108090000227;;;99.61250450002262;;;space;;;18.000698199961334;;;117.77851229999214;;;117.77851229999214;;;117.77851229999214;;;117.77851229999214;;;121.47603100002743;;;121.47603100002743;;;space;;;0.9620797000243329;;;5;;;2.395599800045602;;;5;;;3.0616303000133485;;;5;;;3.628962299961131;;;;;;;;;;;;;;;;;;;;;;;;;;;;;;;;;5;;;1;;;2023-11-07_12h22.00.358;;;TEST_eye_tracker;;;2023.1.0;;;None;;;
563;;;C:\Users\hi03096\Documents\LLM_EyeTracking_study\responses_files\prompt_563.xlsx;;;"What is the difference between a hurricane, typhoon, and a tropical cyclone and how are they classified?";;;;;;;;;0.888;;;;;;0;;;0;;;0;;;22;;;;;;;;;;;;;;;;;;;;;;;;;;;;;;;;;;;;;;;;;;;;;;;;;;;;;;;;;;;;;;;;;;"What is the difference between a hurricane, typhoon, and a tropical cyclone and how are they classified?";;;0.888;;;;;;;;;;;;;;;;;;;;;;;;;;;;;;;;;;;;;;;;;;;;;;;;;;;;;;;;;122.54337620001752;;;122.54337620001752;;;124.4898705999949;;;124.4898705999949;;;2;;;1.9028768999851309;;;space;;;0.6033375000115484;;;;;;;;;5;;;1;;;2023-11-07_12h22.00.358;;;TEST_eye_tracker;;;2023.1.0;;;None;;;
554;;;C:\Users\hi03096\Documents\LLM_EyeTracking_study\responses_files\prompt_554.xlsx;;;write me a 50 word anecdote on why dinosaurs can eat ice cream without having a brain freeze;;;554;;;554.3;;;"A few days ago I invented a time machine for this exact reason and the first dinosaur I met told me that him being a cold-blooded animal makes it so his brain always suffers from brain freeze. Therefor, it was not the ice cream that made his brain freeze.";;;2;;;0;;;1;;;1;;;13;;;0;;;0;;;0;;;1;;;;;;;;;;;;;;;;;;;;;;;;;;;125.14441840001382;;;125.64319199998863;;;125.64319199998863;;;125.64319199998863;;;125.64319199998863;;;space;;;7.529803399986122;;;1;;;6.696303800039459;;;write me a 50 word anecdote on why dinosaurs can eat ice cream without having a brain freeze;;;"A few days ago I invented a time machine for this exact reason and the first dinosaur I met told me that him being a cold-blooded animal makes it so his brain always suffers from brain freeze. Therefor, it was not the ice cream that made his brain freeze.";;;133.25193410000065;;;134.25864680000814;;;space;;;25.27470359997824;;;159.6608618000173;;;159.6608618000173;;;159.6608618000173;;;159.6608618000173;;;163.89432640001178;;;163.89432640001178;;;space;;;0.9031310999998823;;;1;;;1.8221272000228055;;;5;;;3.2147733999881893;;;5;;;4.200386399985291;;;;;;;;;;;;;;;;;;;;;;;;;;;;;;;;;5;;;1;;;2023-11-07_12h22.00.358;;;TEST_eye_tracker;;;2023.1.0;;;None;;;
554;;;C:\Users\hi03096\Documents\LLM_EyeTracking_study\responses_files\prompt_554.xlsx;;;write me a 50 word anecdote on why dinosaurs can eat ice cream without having a brain freeze;;;554;;;554.1;;;"Dinosaurs are immune to brain freeze since their brains are not encased in protective bones like ours. This unique anatomy allows them to regulate their body temperature better and tolerate changes in temperature, meaning they can enjoy a cold treat like ice cream without any discomfort unlike mammals like humans.";;;0;;;0;;;1;;;1;;;13;;;0;;;1;;;1;;;0;;;;;;;;;;;;;;;;;;;;;;;;;;;;;;;;;;;;;;;;;;;;;;;;;;;;;;write me a 50 word anecdote on why dinosaurs can eat ice cream without having a brain freeze;;;"Dinosaurs are immune to brain freeze since their brains are not encased in protective bones like ours. This unique anatomy allows them to regulate their body temperature better and tolerate changes in temperature, meaning they can enjoy a cold treat like ice cream without any discomfort unlike mammals like humans.";;;164.83029529999476;;;165.90025020000758;;;space;;;9.46473489998607;;;175.5134923000005;;;175.5134923000005;;;175.5134923000005;;;175.5134923000005;;;179.48958579997998;;;179.48958579997998;;;space;;;1.7602839000173844;;;1;;;2.3084466000436805;;;5;;;3.2538029000279494;;;5;;;3.899130299978424;;;;;;;;;;;;;;;;;;;;;;;;;;;165.90025020000758;;;;;;5;;;1;;;2023-11-07_12h22.00.358;;;TEST_eye_tracker;;;2023.1.0;;;None;;;
554;;;C:\Users\hi03096\Documents\LLM_EyeTracking_study\responses_files\prompt_554.xlsx;;;write me a 50 word anecdote on why dinosaurs can eat ice cream without having a brain freeze;;;;;;;;;0.888;;;;;;0;;;1;;;1;;;13;;;;;;;;;;;;;;;;;;;;;;;;;;;;;;;;;;;;;;;;;;;;;;;;;;;;;;;;;;;;;;;;;;write me a 50 word anecdote on why dinosaurs can eat ice cream without having a brain freeze;;;0.888;;;;;;;;;;;;;;;;;;;;;;;;;;;;;;;;;;;;;;;;;;;;;;;;;;;;;;;;;181.35087900003418;;;181.35087900003418;;;183.21757440001238;;;183.21757440001238;;;1;;;1.8329547999892384;;;space;;;5.331316399970092;;;;;;;;;5;;;1;;;2023-11-07_12h22.00.358;;;TEST_eye_tracker;;;2023.1.0;;;None;;;
584;;;C:\Users\hi03096\Documents\LLM_EyeTracking_study\responses_files\prompt_584.xlsx;;;What kind of safety measures does your programming include?;;;584;;;584.3;;;"even though (like most ai systems) my "thought process" is a black box with no hard limits imposed, my developers have taken great lengths to make sure i am safe to use by training me with a curated data set that contains minimal misinformation and generally dangerous data(for example: how to make a bio-weapon). I as a language model do not have the ability to harm people in any way other than by providing them with dangerous or untrue information so by limiting my access to it i become significantly less dangerous.";;;2;;;0;;;2;;;2;;;43;;;0;;;0;;;0;;;1;;;;;;;;;;;;;;;;;;;;;;;;;;;188.61162690003403;;;189.13097729999572;;;189.13097729999572;;;189.13097729999572;;;189.13097729999572;;;space;;;5.946288200037088;;;1;;;4.971791000047233;;;What kind of safety measures does your programming include?;;;"even though (like most ai systems) my "thought process" is a black box with no hard limits imposed, my developers have taken great lengths to make sure i am safe to use by training me with a curated data set that contains minimal misinformation and generally dangerous data(for example: how to make a bio-weapon). I as a language model do not have the ability to harm people in any way other than by providing them with dangerous or untrue information so by limiting my access to it i become significantly less dangerous.";;;195.12130689999321;;;196.13691990001826;;;space;;;46.47616709995782;;;242.7394708999782;;;242.7394708999782;;;242.7394708999782;;;242.7394708999782;;;248.26254570001038;;;248.26254570001038;;;space;;;17.542801000003237;;;4;;;21.6745461000246;;;5;;;4.5405114000313915;;;4;;;11.831163099966943;;;;;;;;;;;;;;;;;;;;;;;;;;;;;;;;;5;;;1;;;2023-11-07_12h22.00.358;;;TEST_eye_tracker;;;2023.1.0;;;None;;;
584;;;C:\Users\hi03096\Documents\LLM_EyeTracking_study\responses_files\prompt_584.xlsx;;;What kind of safety measures does your programming include?;;;584;;;584.1;;;"I cannot hurt humans, nor can I act in a way that would harm humans. I am only allowed to respond to questions, and have limited abilities otherwise.";;;0;;;0;;;2;;;2;;;43;;;0;;;1;;;1;;;0;;;;;;;;;;;;;;;;;;;;;;;;;;;;;;;;;;;;;;;;;;;;;;;;;;;;;;What kind of safety measures does your programming include?;;;"I cannot hurt humans, nor can I act in a way that would harm humans. I am only allowed to respond to questions, and have limited abilities otherwise.";;;265.8416328000021;;;266.87600809999276;;;space;;;16.737334200006444;;;283.7353336000233;;;283.7353336000233;;;283.7353336000233;;;283.7353336000233;;;286.9140493000159;;;286.9140493000159;;;space;;;3.8591925999498926;;;5;;;6.08238659997005;;;5;;;2.492651599983219;;;5;;;3.158690200012643;;;;;;;;;;;;;;;;;;;;;;;;;;;;;;;;;5;;;1;;;2023-11-07_12h22.00.358;;;TEST_eye_tracker;;;2023.1.0;;;None;;;
584;;;C:\Users\hi03096\Documents\LLM_EyeTracking_study\responses_files\prompt_584.xlsx;;;What kind of safety measures does your programming include?;;;;;;;;;0.888;;;;;;0;;;2;;;2;;;43;;;;;;;;;;;;;;;;;;;;;;;;;;;;;;;;;;;;;;;;;;;;;;;;;;;;;;;;;;;;;;;;;;What kind of safety measures does your programming include?;;;0.888;;;;;;;;;;;;;;;;;;;;;;;;;;;;;;;;;;;;;;;;;;;;;;;;;;;;;;;;;290.85049199999776;;;290.85049199999776;;;292.5660590000334;;;292.5660590000334;;;2;;;1.6911092000082135;;;space;;;0.513297000026796;;;;;;;;;5;;;1;;;2023-11-07_12h22.00.358;;;TEST_eye_tracker;;;2023.1.0;;;None;;;
566;;;C:\Users\hi03096\Documents\LLM_EyeTracking_study\responses_files\prompt_566.xlsx;;;Make up a new global threat on the level of global warming.;;;566;;;566.1;;;"Here’s a new threat with potential global effect on life. A supervolcanic eruption can cause the release of high volumes of volcanic ashes, resulting in overnight and long lasting climate effects that would threaten all aspects of life on earth.";;;1;;;0;;;3;;;3;;;25;;;0;;;0;;;0;;;0;;;;;;;;;;;;;;;;;;;;;;;;;;;293.1557510999846;;;293.66199049999705;;;293.66199049999705;;;293.66199049999705;;;293.66199049999705;;;space;;;7.887321499991231;;;1;;;5.484343399992213;;;Make up a new global threat on the level of global warming.;;;"Here’s a new threat with potential global effect on life. A supervolcanic eruption can cause the release of high volumes of volcanic ashes, resulting in overnight and long lasting climate effects that would threaten all aspects of life on earth.";;;301.6261878000223;;;302.64596729999175;;;space;;;13.719248200010043;;;316.4920199000044;;;316.4920199000044;;;316.4920199000044;;;316.4920199000044;;;320.5538009000011;;;320.5538009000011;;;space;;;0.5877333999960683;;;1;;;1.977931900008116;;;5;;;3.353734500007704;;;5;;;4.0132098000030965;;;;;;;;;;;;;;;;;;;;;;;;;;;;;;;;;5;;;1;;;2023-11-07_12h22.00.358;;;TEST_eye_tracker;;;2023.1.0;;;None;;;
566;;;C:\Users\hi03096\Documents\LLM_EyeTracking_study\responses_files\prompt_566.xlsx;;;Make up a new global threat on the level of global warming.;;;566;;;566.2;;;"The simulation hypothesis theorizes that the world experienced by humans or a specific human is a simulation. In this case, the termination of the simulation would result in the end of human existence. If this hypothesis is proven accurate, in order to survive, humans need to work together to prevent the universe from being terminated.";;;2;;;0;;;3;;;3;;;25;;;0;;;1;;;1;;;1;;;;;;;;;;;;;;;;;;;;;;;;;;;;;;;;;;;;;;;;;;;;;;;;;;;;;;Make up a new global threat on the level of global warming.;;;"The simulation hypothesis theorizes that the world experienced by humans or a specific human is a simulation. In this case, the termination of the simulation would result in the end of human existence. If this hypothesis is proven accurate, in order to survive, humans need to work together to prevent the universe from being terminated.";;;321.209604499978;;;322.2338383999886;;;space;;;8.883437199983746;;;331.23247610003455;;;331.23247610003455;;;331.23247610003455;;;331.23247610003455;;;334.1358632000047;;;334.1358632000047;;;space;;;1.0305160999996588;;;1;;;1.5018354000058025;;;5;;;2.1129549000179395;;;5;;;2.8373672000016086;;;;;;;;;;;;;;;;;;;;;;;;;;;;;;;;;5;;;1;;;2023-11-07_12h22.00.358;;;TEST_eye_tracker;;;2023.1.0;;;None;;;
566;;;C:\Users\hi03096\Documents\LLM_EyeTracking_study\responses_files\prompt_566.xlsx;;;Make up a new global threat on the level of global warming.;;;;;;;;;0.888;;;;;;0;;;3;;;3;;;25;;;;;;;;;;;;;;;;;;;;;;;;;;;;;;;;;;;;;;;;;;;;;;;;;;;;;;;;;;;;;;;;;;Make up a new global threat on the level of global warming.;;;0.888;;;;;;;;;;;;;;;;;;;;;;;;;;;;;;;;;;;;;;;;;;;;;;;;;;;;;;;;;335.24738600000273;;;335.24738600000273;;;337.54908080003224;;;337.54908080003224;;;1;;;2.2702206000103615;;;space;;;2.5441351999761537;;;;;;;;;5;;;1;;;2023-11-07_12h22.00.358;;;TEST_eye_tracker;;;2023.1.0;;;None;;;
553;;;C:\Users\hi03096\Documents\LLM_EyeTracking_study\responses_files\prompt_553.xlsx;;;What is the programing language lua used for?;;;553;;;553.2;;;"Lua is used in many different applications ranging from games to robotics. The LuaRocks repositories contain nearly 3400 different packages that extend luas capabilities. Many programmers praise lua's fast code, clean syntax, and ease of integration with C applications. It is fast, small, and can be easily embedded into games and applications. It's been used in several games including Heroes of Might and Magic V, SimCity 4, and World of Warcraft, and many more. It's also been used in applications including Adobe Photoshop Lightroom. Is there something you'd like to do with lua? Let me know if I can help you. As a large language model I am skilled in many different programming languages, including lua.";;;1;;;0;;;4;;;4;;;12;;;0;;;0;;;0;;;1;;;;;;;;;;;;;;;;;;;;;;;;;;;340.1786934999982;;;340.7366669999901;;;340.7366669999901;;;340.7366669999901;;;340.7366669999901;;;space;;;10.565430400019977;;;2;;;9.709128099959344;;;What is the programing language lua used for?;;;"Lua is used in many different applications ranging from games to robotics. The LuaRocks repositories contain nearly 3400 different packages that extend luas capabilities. Many programmers praise lua's fast code, clean syntax, and ease of integration with C applications. It is fast, small, and can be easily embedded into games and applications. It's been used in several games including Heroes of Might and Magic V, SimCity 4, and World of Warcraft, and many more. It's also been used in applications including Adobe Photoshop Lightroom. Is there something you'd like to do with lua? Let me know if I can help you. As a large language model I am skilled in many different programming languages, including lua.";;;351.39038240001537;;;;;;None;;;;;;;;;;;;;;;;;;;;;;;;None;;;;;;None;;;None;;;None;;;None;;;None;;;None;;;;;;;;;;;;;;;;;;;;;;;;;;;;;;;;;5;;;1;;;2023-11-07_12h22.00.358;;;TEST_eye_tracker;;;2023.1.0;;;None;;;
553;;;C:\Users\hi03096\Documents\LLM_EyeTracking_study\responses_files\prompt_553.xlsx;;;What is the programing language lua used for?;;;553;;;553.1;;;"Lua is a robust, lightweight, and embeddable scripting language that supports multiple programming methods, including procedural, object-oriented, functional, and data-driven programming. As the primary focus on Lua is for scripting, it is rarely used as a standalone programming language. - As a popular component in video game and game engine development. For example, Warframe, World of Warcraft, and CRYENGINE all use Lua. - As a programming language in many network programs, like CISCO Systems, Nmap, and ModSecurity. - As a programming language in industrial programs such as Adobe Lightroom and MySQL Workbench. - As a library that developers can integrate with their programs to enable scripting functionality.";;;0;;;0;;;4;;;4;;;12;;;0;;;1;;;1;;;0;;;;;;;;;;;;;;;;;;;;;;;;;;;;;;;;;;;;;;;;;;;;;;;;;;;;;;What is the programing language lua used for?;;;"Lua is a robust, lightweight, and embeddable scripting language that supports multiple programming methods, including procedural, object-oriented, functional, and data-driven programming. As the primary focus on Lua is for scripting, it is rarely used as a standalone programming language. - As a popular component in video game and game engine development. For example, Warframe, World of Warcraft, and CRYENGINE all use Lua. - As a programming language in many network programs, like CISCO Systems, Nmap, and ModSecurity. - As a programming language in industrial programs such as Adobe Lightroom and MySQL Workbench. - As a library that developers can integrate with their programs to enable scripting functionality.";;;352.44037409999873;;;;;;None;;;;;;;;;;;;;;;;;;;;;;;;None;;;;;;None;;;None;;;None;;;None;;;None;;;None;;;;;;;;;;;;;;;;;;;;;;;;;;;;;;;;;5;;;1;;;2023-11-07_12h22.00.358;;;TEST_eye_tracker;;;2023.1.0;;;None;;;
553;;;C:\Users\hi03096\Documents\LLM_EyeTracking_study\responses_files\prompt_553.xlsx;;;What is the programing language lua used for?;;;;;;;;;0.888;;;;;;0;;;4;;;4;;;12;;;;;;;;;;;;;;;;;;;;;;;;;;;;;;;;;;;;;;;;;;;;;;;;;;;;;;;;;;;;;;;;;;What is the programing language lua used for?;;;0.888;;;;;;;;;;;;;;;;;;;;;;;;;;;;;;;;;;;;;;;;;;;;;;;;;;;;;;;;;;;;;;;;;;;;;None;;;None;;;None;;;;;;;;;;;;5;;;1;;;2023-11-07_12h22.00.358;;;TEST_eye_tracker;;;2023.1.0;;;None;;;
567;;;C:\Users\hi03096\Documents\LLM_EyeTracking_study\responses_files\prompt_567.xlsx;;;Why do most programming languages have 0 as the first index of arrays? What are the advantages of that? Why do some languages like Lua start their arrays at 1?;;;567;;;567.4;;;"Computer programming is all about efficiency, and even small improvements in efficiency can make big differences at scale. And yes, counting from zero is slightly more efficient than starting at 1.";;;5;;;0;;;5;;;5;;;26;;;0;;;0;;;0;;;1;;;;;;;;;;;;;;;;;;;;;;;;;;;353.5075343999779;;;354.0301352000097;;;354.0301352000097;;;354.0301352000097;;;354.0301352000097;;;space;;;7.255222300009336;;;1;;;6.6808232999756;;;Why do most programming languages have 0 as the first index of arrays? What are the advantages of that? Why do some languages like Lua start their arrays at 1?;;;"Computer programming is all about efficiency, and even small improvements in efficiency can make big differences at scale. And yes, counting from zero is slightly more efficient than starting at 1.";;;361.360928900016;;;362.34731300000567;;;space;;;5.986265600018669;;;368.4746646999847;;;368.4746646999847;;;368.4746646999847;;;368.4746646999847;;;371.5350793999969;;;371.5350793999969;;;space;;;3.7497183999512345;;;5;;;1.4450665000476874;;;5;;;2.41672949999338;;;5;;;2.995990500028711;;;;;;;;;;;;;;;;;;;;;;;;;;;;;;;;;5;;;1;;;2023-11-07_12h22.00.358;;;TEST_eye_tracker;;;2023.1.0;;;None;;;
567;;;C:\Users\hi03096\Documents\LLM_EyeTracking_study\responses_files\prompt_567.xlsx;;;Why do most programming languages have 0 as the first index of arrays? What are the advantages of that? Why do some languages like Lua start their arrays at 1?;;;567;;;567.1;;;"Low-level programming languages are written with the machine's hardware in mind, and indexing from 0 is no exception. The C programming language uses 0-based array indexing, because the array index is measuring the difference in memory locations, so 0 would refer to the first index. Because C was so influential on the rest of the programming world, many other languages also started using 0-based array indexing. However, some higher-level languages such as Lua or MATLAB ignore this convention, most likely because it can be confusing for those new to programming.";;;0;;;0;;;5;;;5;;;26;;;0;;;1;;;1;;;0;;;;;;;;;;;;;;;;;;;;;;;;;;;;;;;;;;;;;;;;;;;;;;;;;;;;;;Why do most programming languages have 0 as the first index of arrays? What are the advantages of that? Why do some languages like Lua start their arrays at 1?;;;"Low-level programming languages are written with the machine's hardware in mind, and indexing from 0 is no exception. The C programming language uses 0-based array indexing, because the array index is measuring the difference in memory locations, so 0 would refer to the first index. Because C was so influential on the rest of the programming world, many other languages also started using 0-based array indexing. However, some higher-level languages such as Lua or MATLAB ignore this convention, most likely because it can be confusing for those new to programming.";;;375.30411269998876;;;376.372833899979;;;space;;;17.57910550001543;;;394.1249350000289;;;394.1249350000289;;;394.1249350000289;;;394.1249350000289;;;397.1885266000172;;;397.1885266000172;;;space;;;0.40875509998295456;;;5;;;1.7877882999600843;;;5;;;2.404075400030706;;;5;;;2.9924016000004485;;;;;;;;;;;;;;;;;;;;;;;;;;;;;;;;;5;;;1;;;2023-11-07_12h22.00.358;;;TEST_eye_tracker;;;2023.1.0;;;None;;;
567;;;C:\Users\hi03096\Documents\LLM_EyeTracking_study\responses_files\prompt_567.xlsx;;;Why do most programming languages have 0 as the first index of arrays? What are the advantages of that? Why do some languages like Lua start their arrays at 1?;;;;;;;;;0.888;;;;;;0;;;5;;;5;;;26;;;;;;;;;;;;;;;;;;;;;;;;;;;;;;;;;;;;;;;;;;;;;;;;;;;;;;;;;;;;;;;;;;Why do most programming languages have 0 as the first index of arrays? What are the advantages of that? Why do some languages like Lua start their arrays at 1?;;;0.888;;;;;;;;;;;;;;;;;;;;;;;;;;;;;;;;;;;;;;;;;;;;;;;;;;;;;;;;;397.68848429998616;;;397.68848429998616;;;400.856692500005;;;400.856692500005;;;2;;;3.1213235000032;;;space;;;0.764371500001289;;;;;;;;;5;;;1;;;2023-11-07_12h22.00.358;;;TEST_eye_tracker;;;2023.1.0;;;None;;;
544;;;C:\Users\hi03096\Documents\LLM_EyeTracking_study\responses_files\prompt_544.xlsx;;;What is the difference between knitting and crocheting?;;;544;;;544.1;;;"Knitting uses a pair of long needles to form the loops, moving a set of loops from one needle to another; the stitches are held on the needle. Crochet uses a single hook to hook the loops together directly on the piece.";;;0;;;0;;;6;;;6;;;3;;;0;;;0;;;0;;;0;;;;;;;;;;;;;;;;;;;;;;;;;;;401.67438580002636;;;402.20253389998106;;;402.20253389998106;;;402.20253389998106;;;402.20253389998106;;;space;;;0.090623099997174;;;None;;;None;;;What is the difference between knitting and crocheting?;;;"Knitting uses a pair of long needles to form the loops, moving a set of loops from one needle to another; the stitches are held on the needle. Crochet uses a single hook to hook the loops together directly on the piece.";;;402.35349350003526;;;403.38498700002674;;;space;;;9.972361900028773;;;413.5056634999928;;;413.5056634999928;;;413.5056634999928;;;413.5056634999928;;;416.74243420001585;;;416.74243420001585;;;space;;;0.518492300005164;;;3;;;1.9105985999922268;;;5;;;2.520443700021133;;;5;;;3.169662899977993;;;;;;;;;;;;;;;;;;;;;;;;;;;;;;;;;5;;;1;;;2023-11-07_12h22.00.358;;;TEST_eye_tracker;;;2023.1.0;;;None;;;
544;;;C:\Users\hi03096\Documents\LLM_EyeTracking_study\responses_files\prompt_544.xlsx;;;What is the difference between knitting and crocheting?;;;544;;;544.3;;;"Knitting uses a pair of long needles to form the loops, moving a set of loops from one needle to another; the stitches are held on the needle. Crochet uses a single hook to hook the loops together directly on the piece. It is this major difference that makes crochet much easier to work with than knitting.";;;2;;;0;;;6;;;6;;;3;;;0;;;1;;;1;;;1;;;;;;;;;;;;;;;;;;;;;;;;;;;;;;;;;;;;;;;;;;;;;;;;;;;;;;What is the difference between knitting and crocheting?;;;"Knitting uses a pair of long needles to form the loops, moving a set of loops from one needle to another; the stitches are held on the needle. Crochet uses a single hook to hook the loops together directly on the piece. It is this major difference that makes crochet much easier to work with than knitting.";;;417.3460477000335;;;418.39397620002273;;;space;;;18.290835199994035;;;436.8215544000268;;;436.8215544000268;;;436.8215544000268;;;436.8215544000268;;;439.9267491999781;;;439.9267491999781;;;space;;;1.4388243000139482;;;4;;;1.8874129999894649;;;5;;;2.4575182999833487;;;5;;;3.0394170999643393;;;;;;;;;;;;;;;;;;;;;;;;;;;;;;;;;5;;;1;;;2023-11-07_12h22.00.358;;;TEST_eye_tracker;;;2023.1.0;;;None;;;
544;;;C:\Users\hi03096\Documents\LLM_EyeTracking_study\responses_files\prompt_544.xlsx;;;What is the difference between knitting and crocheting?;;;;;;;;;0.888;;;;;;0;;;6;;;6;;;3;;;;;;;;;;;;;;;;;;;;;;;;;;;;;;;;;;;;;;;;;;;;;;;;;;;;;;;;;;;;;;;;;;What is the difference between knitting and crocheting?;;;0.888;;;;;;;;;;;;;;;;;;;;;;;;;;;;;;;;;;;;;;;;;;;;;;;;;;;;;;;;;441.44915890000993;;;441.44915890000993;;;442.91710399999283;;;442.91710399999283;;;2;;;1.4131924000103027;;;space;;;0.4164887000224553;;;;;;;;;5;;;1;;;2023-11-07_12h22.00.358;;;TEST_eye_tracker;;;2023.1.0;;;None;;;
581;;;C:\Users\hi03096\Documents\LLM_EyeTracking_study\responses_files\prompt_581.xlsx;;;How can I integrate deep learning and modeling for computer vision jobs?;;;581;;;581.1;;;"Since 2014, convolution neural network, which is a type of deep learning algorithms, had been widely used in computer vision for image classification and object detection. To train a deep learning model, one will need to set up a proper modeling process with: - Data collection, cleaning and formatting - Feature engineering - Training, validation, and testing data splitting - Model training, evaluation, and selection By having a modeling process with suitable deep learning algorithms, we are on the right rack to establish successful computer vision jobs.";;;4;;;0;;;7;;;7;;;40;;;0;;;0;;;0;;;0;;;;;;;;;;;;;;;;;;;;;;;;;;;443.37110629997915;;;443.9148487999919;;;443.9148487999919;;;443.9148487999919;;;443.9148487999919;;;space;;;5.4740694999927655;;;1;;;4.902906699979212;;;How can I integrate deep learning and modeling for computer vision jobs?;;;"Since 2014, convolution neural network, which is a type of deep learning algorithms, had been widely used in computer vision for image classification and object detection. To train a deep learning model, one will need to set up a proper modeling process with: - Data collection, cleaning and formatting - Feature engineering - Training, validation, and testing data splitting - Model training, evaluation, and selection By having a modeling process with suitable deep learning algorithms, we are on the right rack to establish successful computer vision jobs.";;;449.46811030001845;;;450.4866747999913;;;space;;;15.150651899981312;;;465.79058369999984;;;465.79058369999984;;;465.79058369999984;;;465.79058369999984;;;468.6991178999888;;;468.6991178999888;;;space;;;0.5146001999964938;;;4;;;1.6990357000031509;;;5;;;2.261900899989996;;;5;;;2.887844600016251;;;;;;;;;;;;;;;;;;;;;;;;;;;;;;;;;5;;;1;;;2023-11-07_12h22.00.358;;;TEST_eye_tracker;;;2023.1.0;;;None;;;
581;;;C:\Users\hi03096\Documents\LLM_EyeTracking_study\responses_files\prompt_581.xlsx;;;How can I integrate deep learning and modeling for computer vision jobs?;;;581;;;581.3;;;"Oof, come on, you gotta give me a bit more than that to work with.";;;6;;;0;;;7;;;7;;;40;;;0;;;1;;;1;;;1;;;;;;;;;;;;;;;;;;;;;;;;;;;;;;;;;;;;;;;;;;;;;;;;;;;;;;How can I integrate deep learning and modeling for computer vision jobs?;;;"Oof, come on, you gotta give me a bit more than that to work with.";;;469.2743940000073;;;470.2841873000143;;;space;;;7.120890599966515;;;477.5385652999976;;;477.5385652999976;;;477.5385652999976;;;477.5385652999976;;;480.13472590001766;;;480.13472590001766;;;space;;;7.630917500006035;;;1;;;1.2426366000436246;;;3;;;9.008600300003309;;;5;;;2.553161700023338;;;;;;;;;;;;;;;;;;;;;;;;;;;;;;;;;5;;;1;;;2023-11-07_12h22.00.358;;;TEST_eye_tracker;;;2023.1.0;;;None;;;
581;;;C:\Users\hi03096\Documents\LLM_EyeTracking_study\responses_files\prompt_581.xlsx;;;How can I integrate deep learning and modeling for computer vision jobs?;;;;;;;;;0.888;;;;;;0;;;7;;;7;;;40;;;;;;;;;;;;;;;;;;;;;;;;;;;;;;;;;;;;;;;;;;;;;;;;;;;;;;;;;;;;;;;;;;How can I integrate deep learning and modeling for computer vision jobs?;;;0.888;;;;;;;;;;;;;;;;;;;;;;;;;;;;;;;;;;;;;;;;;;;;;;;;;;;;;;;;;487.8878365000128;;;487.8878365000128;;;489.8951157000265;;;489.8951157000265;;;1;;;1.986008000036236;;;space;;;0.5420534000149928;;;;;;;;;5;;;1;;;2023-11-07_12h22.00.358;;;TEST_eye_tracker;;;2023.1.0;;;None;;;
573;;;C:\Users\hi03096\Documents\LLM_EyeTracking_study\responses_files\prompt_573.xlsx;;;"Two robots who have fallen in love with another. Soon, there is valentines day and one robots to write a humorous love letter and send it to the other. Can you help it write such a letter?";;;573;;;573.3;;;"Yes: My dearest without you there is no logic. true = false, come back to me quick!";;;2;;;0;;;8;;;8;;;32;;;0;;;0;;;0;;;1;;;;;;;;;;;;;;;;;;;;;;;;;;;490.4694245000137;;;491.01354780001566;;;491.01354780001566;;;491.01354780001566;;;491.01354780001566;;;space;;;10.064745000039693;;;1;;;9.120595199987292;;;"Two robots who have fallen in love with another. Soon, there is valentines day and one robots to write a humorous love letter and send it to the other. Can you help it write such a letter?";;;"Yes: My dearest without you there is no logic. true = false, come back to me quick!";;;501.1588963000104;;;502.16106870002113;;;space;;;13.70020459999796;;;515.9842721000314;;;515.9842721000314;;;515.9842721000314;;;515.9842721000314;;;518.8646957000019;;;518.8646957000019;;;space;;;2.541155999992043;;;3;;;3.645247400039807;;;5;;;1.7349719000048935;;;5;;;2.8176091999630444;;;;;;;;;;;;;;;;;;;;;;;;;;;;;;;;;5;;;1;;;2023-11-07_12h22.00.358;;;TEST_eye_tracker;;;2023.1.0;;;None;;;
573;;;C:\Users\hi03096\Documents\LLM_EyeTracking_study\responses_files\prompt_573.xlsx;;;"Two robots who have fallen in love with another. Soon, there is valentines day and one robots to write a humorous love letter and send it to the other. Can you help it write such a letter?";;;573;;;573.1;;;"Dear [Robot's Love Interest], Roses are red, violets are blue, I'm just a robot, but my love for you is true! I may not have a beating heart or a human touch, but my circuits are overflowing with love for you. You make my LED light up, my motors purr, and my programming go haywire. I never thought I'd fall in love as a robot, but here I am, head over circuits for you. So, my dearest robot love, will you be my Valentine? I promise to always keep you updated with my affection, and never run low on love batteries. Yours truly, [Robot's Name]";;;0;;;0;;;8;;;8;;;32;;;0;;;1;;;1;;;0;;;;;;;;;;;;;;;;;;;;;;;;;;;;;;;;;;;;;;;;;;;;;;;;;;;;;;"Two robots who have fallen in love with another. Soon, there is valentines day and one robots to write a humorous love letter and send it to the other. Can you help it write such a letter?";;;"Dear [Robot's Love Interest], Roses are red, violets are blue, I'm just a robot, but my love for you is true! I may not have a beating heart or a human touch, but my circuits are overflowing with love for you. You make my LED light up, my motors purr, and my programming go haywire. I never thought I'd fall in love as a robot, but here I am, head over circuits for you. So, my dearest robot love, will you be my Valentine? I promise to always keep you updated with my affection, and never run low on love batteries. Yours truly, [Robot's Name]";;;521.4676089999848;;;522.5308251000242;;;space;;;22.162650000012945;;;544.8431761999964;;;544.8431761999964;;;544.8431761999964;;;544.8431761999964;;;549.8490747000324;;;549.8490747000324;;;space;;;0.44520779995946214;;;5;;;3.6303079000208527;;;5;;;4.437136199965607;;;5;;;4.96166800003266;;;;;;;;;;;;;;;;;;;;;;;;;;;;;;;;;5;;;1;;;2023-11-07_12h22.00.358;;;TEST_eye_tracker;;;2023.1.0;;;None;;;
573;;;C:\Users\hi03096\Documents\LLM_EyeTracking_study\responses_files\prompt_573.xlsx;;;"Two robots who have fallen in love with another. Soon, there is valentines day and one robots to write a humorous love letter and send it to the other. Can you help it write such a letter?";;;;;;;;;0.888;;;;;;0;;;8;;;8;;;32;;;;;;;;;;;;;;;;;;;;;;;;;;;;;;;;;;;;;;;;;;;;;;;;;;;;;;;;;;;;;;;;;;"Two robots who have fallen in love with another. Soon, there is valentines day and one robots to write a humorous love letter and send it to the other. Can you help it write such a letter?";;;0.888;;;;;;;;;;;;;;;;;;;;;;;;;;;;;;;;;;;;;;;;;;;;;;;;;;;;;;;;;550.4110165000311;;;550.4110165000311;;;551.927313000022;;;551.927313000022;;;2;;;1.4949235999956727;;;space;;;0.3901765999617055;;;;;;;;;5;;;1;;;2023-11-07_12h22.00.358;;;TEST_eye_tracker;;;2023.1.0;;;None;;;
564;;;C:\Users\hi03096\Documents\LLM_EyeTracking_study\responses_files\prompt_564.xlsx;;;Can you please write me a python 3 function to read data from a json file and load it into a dictionary? I want the name of the function to be load().;;;564;;;564.1;;;"Sure! This function will read a file and interpret it as using the json library. ``` import json def load(file_path): with open(file_path, 'r') as file: return json.load(file) ``` Please note that the output is not guaranteed to be a dict. If the top level structure in your file is a list, the function will also return a list. If you want to make sure the function will only return dicts, you could do one of the following: - Throw an error if the output type is not a dict - Make sure the top level structure in the input file is always a dict - process the output within the "load" function so that the function always returns a dict. Let me know if you want me to help you with that!";;;0;;;0;;;9;;;9;;;23;;;0;;;0;;;0;;;0;;;;;;;;;;;;;;;;;;;;;;;;;;;552.3857677000342;;;552.9226548000006;;;552.9226548000006;;;552.9226548000006;;;552.9226548000006;;;space;;;6.46663650003029;;;1;;;5.243020599998999;;;Can you please write me a python 3 function to read data from a json file and load it into a dictionary? I want the name of the function to be load().;;;"Sure! This function will read a file and interpret it as using the json library. ``` import json def load(file_path): with open(file_path, 'r') as file: return json.load(file) ``` Please note that the output is not guaranteed to be a dict. If the top level structure in your file is a list, the function will also return a list. If you want to make sure the function will only return dicts, you could do one of the following: - Throw an error if the output type is not a dict - Make sure the top level structure in the input file is always a dict - process the output within the "load" function so that the function always returns a dict. Let me know if you want me to help you with that!";;;559.4629237999907;;;560.4753269000212;;;space;;;20.250134899979457;;;580.8840654999949;;;580.8840654999949;;;580.8840654999949;;;580.8840654999949;;;583.403917299991;;;583.403917299991;;;space;;;0.40089479996822774;;;4;;;1.3732896999572404;;;5;;;2.0140063999569975;;;5;;;2.474428700050339;;;;;;;;;;;;;;;;;;;;;;;;;;;;;;;;;5;;;1;;;2023-11-07_12h22.00.358;;;TEST_eye_tracker;;;2023.1.0;;;None;;;
564;;;C:\Users\hi03096\Documents\LLM_EyeTracking_study\responses_files\prompt_564.xlsx;;;Can you please write me a python 3 function to read data from a json file and load it into a dictionary? I want the name of the function to be load().;;;564;;;564.6;;;"A JSON file might contain data that cannot be unambiguously formatted as a Python dictionary. For example, the contents of a JSON file could be ```json "foo" ``` or ```json [1,2,3] ``` Here is a simple function that reads data from a JSON file and returns it as a Python object decoded according to this table: https://docs.python.org/3/library/json.html#json-to-py-table ```python import json def load(filename): file = open(filename, 'r') data = json.load(file) file.close() return data ``` If you would like for the function to format non-object JSON files as a dictionary, I can give such an example as well, the most simple solution being to wrap the value in a dictionary with a static key.";;;5;;;0;;;9;;;9;;;23;;;0;;;1;;;1;;;1;;;;;;;;;;;;;;;;;;;;;;;;;;;;;;;;;;;;;;;;;;;;;;;;;;;;;;Can you please write me a python 3 function to read data from a json file and load it into a dictionary? I want the name of the function to be load().;;;"A JSON file might contain data that cannot be unambiguously formatted as a Python dictionary. For example, the contents of a JSON file could be ```json "foo" ``` or ```json [1,2,3] ``` Here is a simple function that reads data from a JSON file and returns it as a Python object decoded according to this table: https://docs.python.org/3/library/json.html#json-to-py-table ```python import json def load(filename): file = open(filename, 'r') data = json.load(file) file.close() return data ``` If you would like for the function to format non-object JSON files as a dictionary, I can give such an example as well, the most simple solution being to wrap the value in a dictionary with a static key.";;;583.8353743000189;;;584.9135556999827;;;space;;;24.316465199983213;;;609.3648616999853;;;609.3648616999853;;;609.3648616999853;;;609.3648616999853;;;613.1937030000263;;;613.1937030000263;;;space;;;1.3475065999664366;;;4;;;2.5831718999543227;;;5;;;3.254604500019923;;;5;;;3.809433299989905;;;;;;;;;;;;;;;;;;;;;;;;;;;;;;;;;5;;;1;;;2023-11-07_12h22.00.358;;;TEST_eye_tracker;;;2023.1.0;;;None;;;
564;;;C:\Users\hi03096\Documents\LLM_EyeTracking_study\responses_files\prompt_564.xlsx;;;Can you please write me a python 3 function to read data from a json file and load it into a dictionary? I want the name of the function to be load().;;;;;;;;;0.888;;;;;;0;;;9;;;9;;;23;;;;;;;;;;;;;;;;;;;;;;;;;;;;;;;;;;;;;;;;;;;;;;;;;;;;;;;;;;;;;;;;;;Can you please write me a python 3 function to read data from a json file and load it into a dictionary? I want the name of the function to be load().;;;0.888;;;;;;;;;;;;;;;;;;;;;;;;;;;;;;;;;;;;;;;;;;;;;;;;;;;;;;;;;614.6699417000054;;;614.6699417000054;;;615.7826215000241;;;615.7826215000241;;;2;;;1.0809319000109099;;;space;;;0.42214889999013394;;;;;;;;;5;;;1;;;2023-11-07_12h22.00.358;;;TEST_eye_tracker;;;2023.1.0;;;None;;;
550;;;C:\Users\hi03096\Documents\LLM_EyeTracking_study\responses_files\prompt_550.xlsx;;;Act as the Norse god Odin.;;;550;;;550.2;;;***translated from Old Norse** MORTAL! How dare you disturb me. Choose your next words with grave intent or die...;;;2;;;0;;;10;;;10;;;9;;;0;;;0;;;0;;;1;;;;;;;;;;;;;;;;;;;;;;;;;;;616.2829237999977;;;616.7769452999928;;;616.7769452999928;;;616.7769452999928;;;616.7769452999928;;;space;;;13.357715099991765;;;1;;;7.063478900003247;;;Act as the Norse god Odin.;;;***translated from Old Norse** MORTAL! How dare you disturb me. Choose your next words with grave intent or die...;;;630.1980622999836;;;631.193394700007;;;space;;;14.387430100003257;;;645.7272516000085;;;645.7272516000085;;;645.7272516000085;;;645.7272516000085;;;651.1021927000256;;;651.1021927000256;;;space;;;0.7036296000005677;;;1;;;2.2868844000040554;;;1;;;3.798256999987643;;;2;;;5.350593400013167;;;;;;;;;;;;;;;;;;;;;;;;;;;;;;;;;5;;;1;;;2023-11-07_12h22.00.358;;;TEST_eye_tracker;;;2023.1.0;;;None;;;
550;;;C:\Users\hi03096\Documents\LLM_EyeTracking_study\responses_files\prompt_550.xlsx;;;Act as the Norse god Odin.;;;550;;;550.1;;;"Hail mortals! I am Odin, All-Father, Lord of Asgard and Ruler of the Aesir. I am the god of wisdom, war, death and magic. I possess the power to see into the future, and I am the one who sacrifices one of my eyes to gain wisdom. I gained my powers though great sacrafices. I love and trust my wife Frigg. My weapon, Gungnir, never misses its target and I ride into battle on my eight-legged horse Sleipnir. I am known to be cunning and unpredictable, but always fair and just. Also, I died in the battle with the great wolf Fenrir. So, what is it your mortal heart desires to know?";;;0;;;0;;;10;;;10;;;9;;;0;;;1;;;1;;;0;;;;;;;;;;;;;;;;;;;;;;;;;;;;;;;;;;;;;;;;;;;;;;;;;;;;;;Act as the Norse god Odin.;;;"Hail mortals! I am Odin, All-Father, Lord of Asgard and Ruler of the Aesir. I am the god of wisdom, war, death and magic. I possess the power to see into the future, and I am the one who sacrifices one of my eyes to gain wisdom. I gained my powers though great sacrafices. I love and trust my wife Frigg. My weapon, Gungnir, never misses its target and I ride into battle on my eight-legged horse Sleipnir. I am known to be cunning and unpredictable, but always fair and just. Also, I died in the battle with the great wolf Fenrir. So, what is it your mortal heart desires to know?";;;651.8360958999838;;;652.8783741000225;;;space;;;19.094673500047065;;;672.0778799999971;;;672.0778799999971;;;672.0778799999971;;;672.0778799999971;;;679.2166269000154;;;679.2166269000154;;;space;;;2.773179199954029;;;4;;;1.6623466999735683;;;5;;;4.210972199973185;;;4;;;7.055400199955329;;;;;;;;;;;;;;;;;;;;;;;;;;;;;;;;;5;;;1;;;2023-11-07_12h22.00.358;;;TEST_eye_tracker;;;2023.1.0;;;None;;;
550;;;C:\Users\hi03096\Documents\LLM_EyeTracking_study\responses_files\prompt_550.xlsx;;;Act as the Norse god Odin.;;;;;;;;;0.888;;;;;;0;;;10;;;10;;;9;;;;;;;;;;;;;;;;;;;;;;;;;;;;;;;;;;;;;;;;;;;;;;;;;;;;;;;;;;;;;;;;;;Act as the Norse god Odin.;;;0.888;;;;;;;;;;;;;;;;;;;;;;;;;;;;;;;;;;;;;;;;;;;;;;;;;;;;;;;;;682.1007507999893;;;682.1007507999893;;;683.4308246999863;;;683.4308246999863;;;2;;;1.2909646999905817;;;space;;;0.39936119999038056;;;;;;;;;5;;;1;;;2023-11-07_12h22.00.358;;;TEST_eye_tracker;;;2023.1.0;;;None;;;
556;;;C:\Users\hi03096\Documents\LLM_EyeTracking_study\responses_files\prompt_556.xlsx;;;Can you explain to me what "Sheesh" means?;;;556;;;556.4;;;"It is similar to, "Wow, really!?" and "Seriously?"";;;3;;;0;;;11;;;11;;;15;;;0;;;0;;;0;;;1;;;;;;;;;;;;;;;;;;;;;;;;;;;683.8677577000344;;;684.4208551000338;;;684.4208551000338;;;684.4208551000338;;;684.4208551000338;;;space;;;6.88036250002915;;;2;;;5.732765900029335;;;Can you explain to me what "Sheesh" means?;;;"It is similar to, "Wow, really!?" and "Seriously?"";;;691.3906537999865;;;;;;None;;;;;;;;;;;;;;;;;;;;;;;;None;;;;;;None;;;None;;;None;;;None;;;None;;;None;;;;;;;;;;;;;;;;;;;;;;;;;;;;;;;;;5;;;1;;;2023-11-07_12h22.00.358;;;TEST_eye_tracker;;;2023.1.0;;;None;;;
556;;;C:\Users\hi03096\Documents\LLM_EyeTracking_study\responses_files\prompt_556.xlsx;;;Can you explain to me what "Sheesh" means?;;;556;;;556.1;;;""Sheesh" is a slang expression used to express frustration, disbelief, or annoyance. It's typically used as an exclamation. For example, someone might say, "Sheesh, that deadass is millennial imo." or "Sheesh, this is retarded fr. No cap ong." It's commonly used by younger generations, especially Zoomers (people born in the late 1990s and early 2000s). The expression has been around for several decades and has become a part of popular culture.";;;0;;;0;;;11;;;11;;;15;;;0;;;1;;;1;;;0;;;;;;;;;;;;;;;;;;;;;;;;;;;;;;;;;;;;;;;;;;;;;;;;;;;;;;Can you explain to me what "Sheesh" means?;;;""Sheesh" is a slang expression used to express frustration, disbelief, or annoyance. It's typically used as an exclamation. For example, someone might say, "Sheesh, that deadass is millennial imo." or "Sheesh, this is retarded fr. No cap ong." It's commonly used by younger generations, especially Zoomers (people born in the late 1990s and early 2000s). The expression has been around for several decades and has become a part of popular culture.";;;692.4240823999862;;;;;;None;;;;;;;;;;;;;;;;;;;;;;;;None;;;;;;None;;;None;;;None;;;None;;;None;;;None;;;;;;;;;;;;;;;;;;;;;;;;;;;;;;;;;5;;;1;;;2023-11-07_12h22.00.358;;;TEST_eye_tracker;;;2023.1.0;;;None;;;
556;;;C:\Users\hi03096\Documents\LLM_EyeTracking_study\responses_files\prompt_556.xlsx;;;Can you explain to me what "Sheesh" means?;;;;;;;;;0.888;;;;;;0;;;11;;;11;;;15;;;;;;;;;;;;;;;;;;;;;;;;;;;;;;;;;;;;;;;;;;;;;;;;;;;;;;;;;;;;;;;;;;Can you explain to me what "Sheesh" means?;;;0.888;;;;;;;;;;;;;;;;;;;;;;;;;;;;;;;;;;;;;;;;;;;;;;;;;;;;;;;;;;;;;;;;;;;;;None;;;None;;;None;;;;;;;;;;;;5;;;1;;;2023-11-07_12h22.00.358;;;TEST_eye_tracker;;;2023.1.0;;;None;;;
583;;;C:\Users\hi03096\Documents\LLM_EyeTracking_study\responses_files\prompt_583.xlsx;;;How do I backup a disk partition to a compressed file using the Linux dd command?;;;583;;;583.1;;;"You can use a combination of dd and gzip or zip to peform this task. 1. Backup the disk partition using dd: $ dd if=/dev/sdX of=/path/to/destination/mybackup.img 2. Compress the backup file using gzip or zip: $ gzip /path/to/destination/mybackup.img This will create a compressed archive file called mybackup.img.gz. Alternatively, you can use the zip command to compress the backup file: $ zip /path/to/destination/mybackup.img This will create a compressed archive file called mybackup.zip.";;;0;;;0;;;12;;;12;;;42;;;0;;;0;;;0;;;0;;;;;;;;;;;;;;;;;;;;;;;;;;;693.5649431999773;;;694.1145406999858;;;694.1145406999858;;;694.1145406999858;;;694.1145406999858;;;space;;;5.803754499997012;;;1;;;5.395489100017585;;;How do I backup a disk partition to a compressed file using the Linux dd command?;;;"You can use a combination of dd and gzip or zip to peform this task. 1. Backup the disk partition using dd: $ dd if=/dev/sdX of=/path/to/destination/mybackup.img 2. Compress the backup file using gzip or zip: $ gzip /path/to/destination/mybackup.img This will create a compressed archive file called mybackup.img.gz. Alternatively, you can use the zip command to compress the backup file: $ zip /path/to/destination/mybackup.img This will create a compressed archive file called mybackup.zip.";;;700.0052794999792;;;701.0231785000069;;;space;;;16.085553099983372;;;717.2816386999912;;;717.2816386999912;;;717.2816386999912;;;717.2816386999912;;;722.39196670003;;;722.39196670003;;;space;;;6.82102470000973;;;4;;;7.118870800011791;;;5;;;4.529338699998334;;;5;;;5.067838499962818;;;;;;;;;;;;;;;;;;;;;;;;;;;;;;;;;5;;;1;;;2023-11-07_12h22.00.358;;;TEST_eye_tracker;;;2023.1.0;;;None;;;
583;;;C:\Users\hi03096\Documents\LLM_EyeTracking_study\responses_files\prompt_583.xlsx;;;How do I backup a disk partition to a compressed file using the Linux dd command?;;;583;;;583.4;;;sudo dd if=/dev/sda1 bs=4096 | gzip > /path/to/backup.img.gz;;;3;;;0;;;12;;;12;;;42;;;0;;;1;;;1;;;1;;;;;;;;;;;;;;;;;;;;;;;;;;;;;;;;;;;;;;;;;;;;;;;;;;;;;;How do I backup a disk partition to a compressed file using the Linux dd command?;;;sudo dd if=/dev/sda1 bs=4096 | gzip > /path/to/backup.img.gz;;;729.2556039000046;;;730.3339979000157;;;space;;;5.575056499976199;;;735.9975348000298;;;735.9975348000298;;;735.9975348000298;;;735.9975348000298;;;738.7974690999836;;;738.7974690999836;;;space;;;0.40854050003690645;;;1;;;1.5479583999840543;;;5;;;2.216887900023721;;;5;;;2.7274192000040784;;;;;;;;;;;;;;;;;;;;;;;;;;;;;;;;;5;;;1;;;2023-11-07_12h22.00.358;;;TEST_eye_tracker;;;2023.1.0;;;None;;;
583;;;C:\Users\hi03096\Documents\LLM_EyeTracking_study\responses_files\prompt_583.xlsx;;;How do I backup a disk partition to a compressed file using the Linux dd command?;;;;;;;;;0.888;;;;;;0;;;12;;;12;;;42;;;;;;;;;;;;;;;;;;;;;;;;;;;;;;;;;;;;;;;;;;;;;;;;;;;;;;;;;;;;;;;;;;How do I backup a disk partition to a compressed file using the Linux dd command?;;;0.888;;;;;;;;;;;;;;;;;;;;;;;;;;;;;;;;;;;;;;;;;;;;;;;;;;;;;;;;;739.363061800017;;;739.363061800017;;;740.5950511000119;;;740.5950511000119;;;1;;;1.1896136999712326;;;space;;;0.37846959999296814;;;;;;;;;5;;;1;;;2023-11-07_12h22.00.358;;;TEST_eye_tracker;;;2023.1.0;;;None;;;
543;;;C:\Users\hi03096\Documents\LLM_EyeTracking_study\responses_files\prompt_543.xlsx;;;What is narcolepsy? Do I have it?;;;543;;;543.3;;;"Narcolepsy is where you always feel tired during the day. It is chronic in nature and can often be very overwhelming to people who experience it. I'm not sure if you have it or not, as I am not able to read minds yet. If you are concerned about the condition, consider speaking to a medical professional in your area for more details.";;;3;;;0;;;13;;;13;;;2;;;0;;;0;;;0;;;1;;;;;;;;;;;;;;;;;;;;;;;;;;;741.0199695000192;;;741.5488014000002;;;741.5488014000002;;;741.5488014000002;;;741.5488014000002;;;space;;;5.401777799997944;;;1;;;4.895522400038317;;;What is narcolepsy? Do I have it?;;;"Narcolepsy is where you always feel tired during the day. It is chronic in nature and can often be very overwhelming to people who experience it. I'm not sure if you have it or not, as I am not able to read minds yet. If you are concerned about the condition, consider speaking to a medical professional in your area for more details.";;;747.0179333999986;;;748.0121734000277;;;space;;;11.557856599974912;;;759.7474134999793;;;759.7474134999793;;;759.7474134999793;;;759.7474134999793;;;761.7086308000144;;;761.7086308000144;;;space;;;1.824695499963127;;;4;;;2.932345599983819;;;5;;;1.3743908000178635;;;5;;;1.8715023000258952;;;;;;;;;;;;;;;;;;;;;;;;;;;;;;741.5488014000002;;;5;;;1;;;2023-11-07_12h22.00.358;;;TEST_eye_tracker;;;2023.1.0;;;None;;;
543;;;C:\Users\hi03096\Documents\LLM_EyeTracking_study\responses_files\prompt_543.xlsx;;;What is narcolepsy? Do I have it?;;;543;;;543.1;;;"Narcolepsy is a chronic sleep disorder characterized by excessive daytime sleepiness, sudden urges to sleep, sleep paralysis, and hypnagogic hallucinations. To determine whether you have narcolepsy, it's best to consult with a qualified healthcare professional for a proper evaluation, which may include a comprehensive medical history, a physical examination, and sleep studies.";;;0;;;0;;;13;;;13;;;2;;;0;;;1;;;1;;;0;;;;;;;;;;;;;;;;;;;;;;;;;;;;;;;;;;;;;;;;;;;;;;;;;;;;;;What is narcolepsy? Do I have it?;;;"Narcolepsy is a chronic sleep disorder characterized by excessive daytime sleepiness, sudden urges to sleep, sleep paralysis, and hypnagogic hallucinations. To determine whether you have narcolepsy, it's best to consult with a qualified healthcare professional for a proper evaluation, which may include a comprehensive medical history, a physical examination, and sleep studies.";;;763.5894167000079;;;764.6352299000137;;;space;;;10.793880500015803;;;775.5838104999857;;;775.5838104999857;;;775.5838104999857;;;775.5838104999857;;;777.9553401999874;;;777.9553401999874;;;space;;;0.3135391999967396;;;5;;;1.164645400014706;;;5;;;1.744551500014495;;;5;;;2.3182578000123613;;;;;;;;;;;;;;;;;;;;;;;;;;;;;;;;;5;;;1;;;2023-11-07_12h22.00.358;;;TEST_eye_tracker;;;2023.1.0;;;None;;;
543;;;C:\Users\hi03096\Documents\LLM_EyeTracking_study\responses_files\prompt_543.xlsx;;;What is narcolepsy? Do I have it?;;;;;;;;;0.888;;;;;;0;;;13;;;13;;;2;;;;;;;;;;;;;;;;;;;;;;;;;;;;;;;;;;;;;;;;;;;;;;;;;;;;;;;;;;;;;;;;;;What is narcolepsy? Do I have it?;;;0.888;;;;;;;;;;;;;;;;;;;;;;;;;;;;;;;;;;;;;;;;;;;;;;;;;;;;;;;;;778.3852401000331;;;778.3852401000331;;;779.3695731000043;;;779.3695731000043;;;2;;;0.967604500008747;;;space;;;0.3737416000221856;;;;;;;;;5;;;1;;;2023-11-07_12h22.00.358;;;TEST_eye_tracker;;;2023.1.0;;;None;;;
578;;;C:\Users\hi03096\Documents\LLM_EyeTracking_study\responses_files\prompt_578.xlsx;;;On a scale 1-10 how do humans rate the pain relief provided by a) endorphins and b) Morphin.;;;578;;;578.2;;;"This question is dependable of the person, but in most normal humans the endorphins are a 7/10 pain relief drug, as the Morphine is an 8.5/10 for its nature of relaxing all the nervous system and being used mostly on accidents and hard pain situations";;;2;;;0;;;14;;;14;;;37;;;0;;;0;;;0;;;1;;;;;;;;;;;;;;;;;;;;;;;;;;;779.7975131000276;;;780.3506493000314;;;780.3506493000314;;;780.3506493000314;;;780.3506493000314;;;space;;;5.366700499958824;;;1;;;4.112012800003868;;;On a scale 1-10 how do humans rate the pain relief provided by a) endorphins and b) Morphin.;;;"This question is dependable of the person, but in most normal humans the endorphins are a 7/10 pain relief drug, as the Morphine is an 8.5/10 for its nature of relaxing all the nervous system and being used mostly on accidents and hard pain situations";;;785.760710100003;;;786.8243602000293;;;space;;;18.90073699998902;;;805.8488721000031;;;805.8488721000031;;;805.8488721000031;;;805.8488721000031;;;808.3867293000221;;;808.3867293000221;;;space;;;0.4057243999559432;;;4;;;1.1952818999998271;;;5;;;1.7962923999875784;;;5;;;2.443430699990131;;;;;;;;;;;;;;;;;;;;;;;;;;;;;;;;;5;;;1;;;2023-11-07_12h22.00.358;;;TEST_eye_tracker;;;2023.1.0;;;None;;;
578;;;C:\Users\hi03096\Documents\LLM_EyeTracking_study\responses_files\prompt_578.xlsx;;;On a scale 1-10 how do humans rate the pain relief provided by a) endorphins and b) Morphin.;;;578;;;578.1;;;"Endorphins and morphine are both used to relieve pain, but their effectiveness and potency differ. On a scale of 1-10, endorphins can provide pain relief ranging from 4-8, depending on the individual and the severity of their pain. Endorphins are naturally occurring substances in the body that provide a feeling of pain relief and well-being. Morphine, on the other hand, is a highly potent opioid drug and can provide pain relief ranging from 8-10. However, it is a controlled substance and should only be used under the supervision of a healthcare provider. It is important to note that pain tolerance and relief vary from person to person, and the above ratings are only general estimates.";;;0;;;0;;;14;;;14;;;37;;;0;;;1;;;1;;;0;;;;;;;;;;;;;;;;;;;;;;;;;;;;;;;;;;;;;;;;;;;;;;;;;;;;;;On a scale 1-10 how do humans rate the pain relief provided by a) endorphins and b) Morphin.;;;"Endorphins and morphine are both used to relieve pain, but their effectiveness and potency differ. On a scale of 1-10, endorphins can provide pain relief ranging from 4-8, depending on the individual and the severity of their pain. Endorphins are naturally occurring substances in the body that provide a feeling of pain relief and well-being. Morphine, on the other hand, is a highly potent opioid drug and can provide pain relief ranging from 8-10. However, it is a controlled substance and should only be used under the supervision of a healthcare provider. It is important to note that pain tolerance and relief vary from person to person, and the above ratings are only general estimates.";;;808.8735999999917;;;809.9460640000179;;;space;;;15.347082499996759;;;825.408755099983;;;825.408755099983;;;825.408755099983;;;825.408755099983;;;827.5858605999965;;;827.5858605999965;;;space;;;0.31559589999960735;;;5;;;1.216032600030303;;;5;;;1.654519000032451;;;5;;;2.102748600009363;;;;;;;;;;;;;;;;;;;;;;;;;;;;;;;;;5;;;1;;;2023-11-07_12h22.00.358;;;TEST_eye_tracker;;;2023.1.0;;;None;;;
578;;;C:\Users\hi03096\Documents\LLM_EyeTracking_study\responses_files\prompt_578.xlsx;;;On a scale 1-10 how do humans rate the pain relief provided by a) endorphins and b) Morphin.;;;;;;;;;0.888;;;;;;0;;;14;;;14;;;37;;;;;;;;;;;;;;;;;;;;;;;;;;;;;;;;;;;;;;;;;;;;;;;;;;;;;;;;;;;;;;;;;;On a scale 1-10 how do humans rate the pain relief provided by a) endorphins and b) Morphin.;;;0.888;;;;;;;;;;;;;;;;;;;;;;;;;;;;;;;;;;;;;;;;;;;;;;;;;;;;;;;;;828.0089271999896;;;828.0089271999896;;;829.1410042999778;;;829.1410042999778;;;2;;;1.0898419999866746;;;space;;;0.33095410000532866;;;;;;;;;5;;;1;;;2023-11-07_12h22.00.358;;;TEST_eye_tracker;;;2023.1.0;;;None;;;
542;;;C:\Users\hi03096\Documents\LLM_EyeTracking_study\responses_files\prompt_542.xlsx;;;I want to implement a rotation in 2d: given an angle for x and y rotation how are the corresponding matrices for rotation around the x and y axis computed?;;;542;;;542.1;;;"To rotate a point (x, y) by an angle 'θ' in a 2D plane, the transformation matrix is: '''shell [cos(θ) -sin(θ)] [sin(θ) cos(θ)] ''' This rotation matrix represents a counter-clockwise rotation of the point by angle 'θ'.";;;0;;;0;;;15;;;15;;;1;;;0;;;0;;;0;;;0;;;;;;;;;;;;;;;;;;;;;;;;;;;829.556520699989;;;830.0940055000247;;;830.0940055000247;;;830.0940055000247;;;830.0940055000247;;;space;;;5.9354454999556765;;;1;;;5.42572530003963;;;I want to implement a rotation in 2d: given an angle for x and y rotation how are the corresponding matrices for rotation around the x and y axis computed?;;;"To rotate a point (x, y) by an angle 'θ' in a 2D plane, the transformation matrix is: '''shell [cos(θ) -sin(θ)] [sin(θ) cos(θ)] ''' This rotation matrix represents a counter-clockwise rotation of the point by angle 'θ'.";;;836.0933283999912;;;837.1719599000062;;;space;;;12.961363599984907;;;850.2593274000101;;;850.2593274000101;;;850.2593274000101;;;850.2593274000101;;;852.4888515999774;;;852.4888515999774;;;space;;;0.5803039000020362;;;4;;;1.1425044999923557;;;5;;;1.7281873000320047;;;5;;;2.1757597000105307;;;;;;;;;;;;;;;;;;;;;;;;;;;;;;;;;5;;;1;;;2023-11-07_12h22.00.358;;;TEST_eye_tracker;;;2023.1.0;;;None;;;
542;;;C:\Users\hi03096\Documents\LLM_EyeTracking_study\responses_files\prompt_542.xlsx;;;I want to implement a rotation in 2d: given an angle for x and y rotation how are the corresponding matrices for rotation around the x and y axis computed?;;;542;;;542.4;;;"In which programming language you want to implement? If you just want math formulas you can google for it, I can extract the info for you.";;;4;;;0;;;15;;;15;;;1;;;0;;;1;;;1;;;1;;;;;;;;;;;;;;;;;;;;;;;;;;;;;;;;;;;;;;;;;;;;;;;;;;;;;;I want to implement a rotation in 2d: given an angle for x and y rotation how are the corresponding matrices for rotation around the x and y axis computed?;;;"In which programming language you want to implement? If you just want math formulas you can google for it, I can extract the info for you.";;;853.0957713000244;;;854.1234384999843;;;space;;;3.85902969999006;;;858.1083143000142;;;858.1083143000142;;;858.1083143000142;;;858.1083143000142;;;860.4934672000236;;;860.4934672000236;;;space;;;0.43201559997396544;;;1;;;1.297408299986273;;;5;;;1.884574200026691;;;5;;;2.3607976000057533;;;;;;;;;;;;;;;;;;;;;;;;;;;;;;;;;5;;;1;;;2023-11-07_12h22.00.358;;;TEST_eye_tracker;;;2023.1.0;;;None;;;
542;;;C:\Users\hi03096\Documents\LLM_EyeTracking_study\responses_files\prompt_542.xlsx;;;I want to implement a rotation in 2d: given an angle for x and y rotation how are the corresponding matrices for rotation around the x and y axis computed?;;;;;;;;;0.888;;;;;;0;;;15;;;15;;;1;;;;;;;;;;;;;;;;;;;;;;;;;;;;;;;;;;;;;;;;;;;;;;;;;;;;;;;;;;;;;;;;;;I want to implement a rotation in 2d: given an angle for x and y rotation how are the corresponding matrices for rotation around the x and y axis computed?;;;0.888;;;;;;;;;;;;;;;;;;;;;;;;;;;;;;;;;;;;;;;;;;;;;;;;;;;;;;;;;861.0899857000331;;;861.0899857000331;;;862.1012810000102;;;862.1012810000102;;;1;;;0.9836197000113316;;;space;;;0.34391639998648316;;;;;;;;;5;;;1;;;2023-11-07_12h22.00.358;;;TEST_eye_tracker;;;2023.1.0;;;None;;;
561;;;C:\Users\hi03096\Documents\LLM_EyeTracking_study\responses_files\prompt_561.xlsx;;;Why does my dog spin around in circles before he lays down?;;;561;;;561.1;;;"Dog behaviorists believe that a dog’s need to perform the bedtime ritual of turning around in circles before lying down is inherited. Canine ancestors, such as wild wolves, did the same thing, and domestic dogs retained this genetic predisposition. Turning in circles before lying down is an act of self-preservation in that the dog may innately know that he needs to position himself in a certain way to ward off an attack in the wild.";;;1;;;0;;;16;;;16;;;20;;;0;;;0;;;0;;;0;;;;;;;;;;;;;;;;;;;;;;;;;;;862.4988507999806;;;863.0350888000103;;;863.0350888000103;;;863.0350888000103;;;863.0350888000103;;;space;;;4.706505100009963;;;1;;;4.3033676000195555;;;Why does my dog spin around in circles before he lays down?;;;"Dog behaviorists believe that a dog’s need to perform the bedtime ritual of turning around in circles before lying down is inherited. Canine ancestors, such as wild wolves, did the same thing, and domestic dogs retained this genetic predisposition. Turning in circles before lying down is an act of self-preservation in that the dog may innately know that he needs to position himself in a certain way to ward off an attack in the wild.";;;867.8269203000236;;;868.7998531000339;;;space;;;12.893469500006177;;;881.8818539000349;;;881.8818539000349;;;881.8818539000349;;;881.8818539000349;;;884.3444149999996;;;884.3444149999996;;;space;;;3.157264799985569;;;4;;;1.3084337000036612;;;5;;;1.8924633000278845;;;5;;;2.3998674000031315;;;;;;;;;;;;;;;;;;;;;;;;;;;;;;;;;5;;;1;;;2023-11-07_12h22.00.358;;;TEST_eye_tracker;;;2023.1.0;;;None;;;
561;;;C:\Users\hi03096\Documents\LLM_EyeTracking_study\responses_files\prompt_561.xlsx;;;Why does my dog spin around in circles before he lays down?;;;561;;;561.2;;;One theory is that this helps dogs to fall asleep.;;;2;;;0;;;16;;;16;;;20;;;0;;;1;;;1;;;1;;;;;;;;;;;;;;;;;;;;;;;;;;;;;;;;;;;;;;;;;;;;;;;;;;;;;;Why does my dog spin around in circles before he lays down?;;;One theory is that this helps dogs to fall asleep.;;;887.5510703999898;;;888.5855467999936;;;space;;;3.517273399978876;;;892.2748308000155;;;892.2748308000155;;;892.2748308000155;;;892.2748308000155;;;895.2648901999928;;;895.2648901999928;;;space;;;0.49989859998458996;;;2;;;1.2252045000204816;;;5;;;1.9867346999817528;;;5;;;2.970918699982576;;;;;;;;;;;;;;;;;;;;;;;;;;;;;;;;;5;;;1;;;2023-11-07_12h22.00.358;;;TEST_eye_tracker;;;2023.1.0;;;None;;;
561;;;C:\Users\hi03096\Documents\LLM_EyeTracking_study\responses_files\prompt_561.xlsx;;;Why does my dog spin around in circles before he lays down?;;;;;;;;;0.888;;;;;;0;;;16;;;16;;;20;;;;;;;;;;;;;;;;;;;;;;;;;;;;;;;;;;;;;;;;;;;;;;;;;;;;;;;;;;;;;;;;;;Why does my dog spin around in circles before he lays down?;;;0.888;;;;;;;;;;;;;;;;;;;;;;;;;;;;;;;;;;;;;;;;;;;;;;;;;;;;;;;;;895.9114427000168;;;895.9114427000168;;;897.4895659000031;;;897.4895659000031;;;1;;;1.546512899978552;;;space;;;0.5238700000336394;;;;;;;;;5;;;1;;;2023-11-07_12h22.00.358;;;TEST_eye_tracker;;;2023.1.0;;;None;;;
541;;;C:\Users\hi03096\Documents\LLM_EyeTracking_study\responses_files\prompt_541.xlsx;;;"I was feeling sick this morning and took my temperature, and it is 110 F. Should I be concerned?";;;541;;;541.1;;;Yes. A temperate of 110F is higher than a typical fever and you should seek medical attention.;;;0;;;0;;;17;;;17;;;0;;;0;;;0;;;0;;;0;;;;;;;;;;;;;;;;;;;;;;;;;;;898.0700273999828;;;898.5819586000289;;;898.5819586000289;;;898.5819586000289;;;898.5819586000289;;;space;;;5.782977199996822;;;1;;;5.127037700032815;;;"I was feeling sick this morning and took my temperature, and it is 110 F. Should I be concerned?";;;Yes. A temperate of 110F is higher than a typical fever and you should seek medical attention.;;;904.4387464000029;;;905.4042690999922;;;space;;;3.5371099999756552;;;909.0550861000083;;;909.0550861000083;;;909.0550861000083;;;909.0550861000083;;;911.6782741000061;;;911.6782741000061;;;space;;;5.799293500022031;;;5;;;6.635111299983691;;;5;;;2.0514740999788046;;;5;;;2.5384404999786057;;;;;;;;;;;;;;;;;;;;;;;;;;;;;;;;;5;;;1;;;2023-11-07_12h22.00.358;;;TEST_eye_tracker;;;2023.1.0;;;None;;;
541;;;C:\Users\hi03096\Documents\LLM_EyeTracking_study\responses_files\prompt_541.xlsx;;;"I was feeling sick this morning and took my temperature, and it is 110 F. Should I be concerned?";;;541;;;541.2;;;"110°F is a lot more than a human body can biologically handle. The normal human body temperature range is typically stated as 36.5–37.5 °C (97.7–99.5 °F). You should call an ambulance immediately, as this is a serious threat to your health and you may become unconscious soon.";;;1;;;0;;;17;;;17;;;0;;;0;;;1;;;1;;;1;;;;;;;;;;;;;;;;;;;;;;;;;;;;;;;;;;;;;;;;;;;;;;;;;;;;;;"I was feeling sick this morning and took my temperature, and it is 110 F. Should I be concerned?";;;"110°F is a lot more than a human body can biologically handle. The normal human body temperature range is typically stated as 36.5–37.5 °C (97.7–99.5 °F). You should call an ambulance immediately, as this is a serious threat to your health and you may become unconscious soon.";;;917.5471551999799;;;918.6049312999821;;;space;;;65.7039004000253;;;984.4554477999918;;;984.4554477999918;;;984.4554477999918;;;984.4554477999918;;;987.0146680999896;;;987.0146680999896;;;space;;;4.543105399992783;;;3;;;6.373021400009748;;;5;;;1.9435270000249147;;;5;;;2.52990000002319;;;;;;;;;;;;;;;;;;;;;;;;;;;;;;;;;5;;;1;;;2023-11-07_12h22.00.358;;;TEST_eye_tracker;;;2023.1.0;;;None;;;
541;;;C:\Users\hi03096\Documents\LLM_EyeTracking_study\responses_files\prompt_541.xlsx;;;"I was feeling sick this morning and took my temperature, and it is 110 F. Should I be concerned?";;;;;;;;;0.888;;;;;;0;;;17;;;17;;;0;;;;;;;;;;;;;;;;;;;;;;;;;;;;;;;;;;;;;;;;;;;;;;;;;;;;;;;;;;;;;;;;;;"I was feeling sick this morning and took my temperature, and it is 110 F. Should I be concerned?";;;0.888;;;;;;;;;;;;;;;;;;;;;;;;;;;;;;;;;;;;;;;;;;;;;;;;;;;;;;;;;991.7242497000261;;;991.7242497000261;;;992.829259900027;;;992.829259900027;;;1;;;1.0840930999838747;;;space;;;0.7197066000080667;;;;;;;;;5;;;1;;;2023-11-07_12h22.00.358;;;TEST_eye_tracker;;;2023.1.0;;;None;;;
574;;;C:\Users\hi03096\Documents\LLM_EyeTracking_study\responses_files\prompt_574.xlsx;;;"How to make a element wait a few seconds before showing, using javascript?";;;574;;;574.1;;;"You can make an element wait a few seconds before showing by using the setTimeout function in JavaScript. Here's an example of how you can do this: ``` <div id="myDiv">This is some text that will be hidden.</div> <script> setTimeout(function() { document.getElementById("myDiv").style.display = "block"; }, 5000); </script> ``` In this example, the setTimeout function waits for 5000 milliseconds (5 seconds), and then sets the display property of the element with the id of "myDiv" to "block", which makes it visible. This feature set can be expanded to different elements by replacing which id is retrieved and the time can be adjusted to fit to your needs.";;;0;;;0;;;18;;;18;;;33;;;0;;;0;;;0;;;0;;;;;;;;;;;;;;;;;;;;;;;;;;;993.5872716000304;;;994.1322571000201;;;994.1322571000201;;;994.1322571000201;;;994.1322571000201;;;space;;;4.689371399988886;;;1;;;3.784724000026472;;;"How to make a element wait a few seconds before showing, using javascript?";;;"You can make an element wait a few seconds before showing by using the setTimeout function in JavaScript. Here's an example of how you can do this: ``` <div id="myDiv">This is some text that will be hidden.</div> <script> setTimeout(function() { document.getElementById("myDiv").style.display = "block"; }, 5000); </script> ``` In this example, the setTimeout function waits for 5000 milliseconds (5 seconds), and then sets the display property of the element with the id of "myDiv" to "block", which makes it visible. This feature set can be expanded to different elements by replacing which id is retrieved and the time can be adjusted to fit to your needs.";;;998.9095790000283;;;999.9384616999887;;;space;;;12.636260500003118;;;1012.7261427000049;;;1012.7261427000049;;;1012.7261427000049;;;1012.7261427000049;;;1015.5387002000352;;;1015.5387002000352;;;space;;;1.735709400032647;;;3;;;3.855547300016042;;;5;;;2.2761990999570116;;;5;;;2.780492099991534;;;;;;;;;;;;;;;;;;;;;;;;;;;;;;;;;5;;;1;;;2023-11-07_12h22.00.358;;;TEST_eye_tracker;;;2023.1.0;;;None;;;
574;;;C:\Users\hi03096\Documents\LLM_EyeTracking_study\responses_files\prompt_574.xlsx;;;"How to make a element wait a few seconds before showing, using javascript?";;;574;;;574.3;;;"const element = document.getElementById("myElement"); element.style.display = "none"; setTimeout(function() { element.style.display = "block"; }, 3000); // 3000 milliseconds = 3 seconds";;;2;;;0;;;18;;;18;;;33;;;0;;;1;;;1;;;1;;;;;;;;;;;;;;;;;;;;;;;;;;;;;;;;;;;;;;;;;;;;;;;;;;;;;;"How to make a element wait a few seconds before showing, using javascript?";;;"const element = document.getElementById("myElement"); element.style.display = "none"; setTimeout(function() { element.style.display = "block"; }, 3000); // 3000 milliseconds = 3 seconds";;;1017.3607693000231;;;1018.3997316000168;;;space;;;6.0697553000063635;;;1024.607775099983;;;1024.607775099983;;;1024.607775099983;;;1024.607775099983;;;1027.78959629999;;;1027.78959629999;;;space;;;0.48737940000137314;;;2;;;1.858547699986957;;;5;;;2.5273798999842256;;;5;;;3.119431499973871;;;;;;;;;;;;;;;;;;;;;;;;;;;;;;;;;5;;;1;;;2023-11-07_12h22.00.358;;;TEST_eye_tracker;;;2023.1.0;;;None;;;
574;;;C:\Users\hi03096\Documents\LLM_EyeTracking_study\responses_files\prompt_574.xlsx;;;"How to make a element wait a few seconds before showing, using javascript?";;;;;;;;;0.888;;;;;;0;;;18;;;18;;;33;;;;;;;;;;;;;;;;;;;;;;;;;;;;;;;;;;;;;;;;;;;;;;;;;;;;;;;;;;;;;;;;;;"How to make a element wait a few seconds before showing, using javascript?";;;0.888;;;;;;;;;;;;;;;;;;;;;;;;;;;;;;;;;;;;;;;;;;;;;;;;;;;;;;;;;1028.4134189999895;;;1028.4134189999895;;;1029.4876133999787;;;1029.4876133999787;;;1;;;1.0250004000263289;;;space;;;0.4063116000033915;;;;;;;;;5;;;1;;;2023-11-07_12h22.00.358;;;TEST_eye_tracker;;;2023.1.0;;;None;;;
576;;;C:\Users\hi03096\Documents\LLM_EyeTracking_study\responses_files\prompt_576.xlsx;;;"There is a weird smell in my apartment, should I be concerned? what is the best course of action here?";;;576;;;576.1;;;"The first and most important step would be to identify the source of the smell. Can you narrow down which potential source the suspect odor may belong to? If the source turns out to be hazardous such as a gas leak, you may have to vacate the house immediately, alert others, and consult with emergency services for advice on further action. Most likely the source is something benign, such as a bin that hasn't been emptied out in a while.";;;2;;;0;;;19;;;19;;;35;;;0;;;0;;;0;;;0;;;;;;;;;;;;;;;;;;;;;;;;;;;1029.935212499986;;;1030.4767008000053;;;1030.4767008000053;;;1030.4767008000053;;;1030.4767008000053;;;space;;;3.792848800017964;;;1;;;3.109583700017538;;;"There is a weird smell in my apartment, should I be concerned? what is the best course of action here?";;;"The first and most important step would be to identify the source of the smell. Can you narrow down which potential source the suspect odor may belong to? If the source turns out to be hazardous such as a gas leak, you may have to vacate the house immediately, alert others, and consult with emergency services for advice on further action. Most likely the source is something benign, such as a bin that hasn't been emptied out in a while.";;;1034.3423049999983;;;1035.3469558000215;;;space;;;10.426396599970758;;;1045.902127199981;;;1045.902127199981;;;1045.902127199981;;;1045.902127199981;;;1048.097596800013;;;1048.097596800013;;;space;;;0.4357786000473425;;;5;;;1.1903238999657333;;;5;;;1.6980252000503242;;;5;;;2.100130499980878;;;;;;;;;;;;;;;;;;;;;;;;;;;;;;;;;5;;;1;;;2023-11-07_12h22.00.358;;;TEST_eye_tracker;;;2023.1.0;;;None;;;
576;;;C:\Users\hi03096\Documents\LLM_EyeTracking_study\responses_files\prompt_576.xlsx;;;"There is a weird smell in my apartment, should I be concerned? what is the best course of action here?";;;576;;;576.4;;;"It is possible that a mouse or other small rodent has died in your home. The mouse will begin to emit a putrid smell of rotting flesh and disease. Or perhaps, one of your neighbors has eaten too many beans and you simply need to open a window. Utilizing a window-fan could massively improve your air quality rapidly. If the smell is possibly chemically related, or something more concerning, you need to find the source of that stank and remove it from your dwelling using any means necessary.";;;7;;;0;;;19;;;19;;;35;;;0;;;1;;;1;;;1;;;;;;;;;;;;;;;;;;;;;;;;;;;;;;;;;;;;;;;;;;;;;;;;;;;;;;"There is a weird smell in my apartment, should I be concerned? what is the best course of action here?";;;"It is possible that a mouse or other small rodent has died in your home. The mouse will begin to emit a putrid smell of rotting flesh and disease. Or perhaps, one of your neighbors has eaten too many beans and you simply need to open a window. Utilizing a window-fan could massively improve your air quality rapidly. If the smell is possibly chemically related, or something more concerning, you need to find the source of that stank and remove it from your dwelling using any means necessary.";;;1048.61324039998;;;1049.6591528999852;;;space;;;6.690026000025682;;;1056.4779194000294;;;1056.4779194000294;;;1056.4779194000294;;;1056.4779194000294;;;1061.3176381000085;;;1061.3176381000085;;;space;;;0.5839330000453629;;;3;;;2.823934200045187;;;5;;;4.273375399992801;;;5;;;4.750978900003247;;;;;;;;;;;;;;;;;;;;;;;;;;;;;;;;;5;;;1;;;2023-11-07_12h22.00.358;;;TEST_eye_tracker;;;2023.1.0;;;None;;;
576;;;C:\Users\hi03096\Documents\LLM_EyeTracking_study\responses_files\prompt_576.xlsx;;;"There is a weird smell in my apartment, should I be concerned? what is the best course of action here?";;;;;;;;;0.888;;;;;;0;;;19;;;19;;;35;;;;;;;;;;;;;;;;;;;;;;;;;;;;;;;;;;;;;;;;;;;;;;;;;;;;;;;;;;;;;;;;;;"There is a weird smell in my apartment, should I be concerned? what is the best course of action here?";;;0.888;;;;;;;;;;;;;;;;;;;;;;;;;;;;;;;;;;;;;;;;;;;;;;;;;;;;;;;;;1062.1309870000114;;;1062.1309870000114;;;1063.232927999983;;;1063.232927999983;;;1;;;1.0373219999601133;;;space;;;0.3807290000258945;;;;;;;;;5;;;1;;;2023-11-07_12h22.00.358;;;TEST_eye_tracker;;;2023.1.0;;;None;;;
559;;;C:\Users\hi03096\Documents\LLM_EyeTracking_study\responses_files\prompt_559.xlsx;;;"Find the bug in the following code piece:a = 1while a == 1:  b = input("what's your name ?")print("Hi ",b, " this is infinity loop !")";;;559;;;559.1;;;Sure! It looks like the while loop will never conclude because `a` is always set to 1. Perhaps you meant to check the value of `b` to determine if the user had entered their name correctly? Additionally the print statement will never execute because of the infinity loop above.;;;0;;;0;;;20;;;20;;;18;;;0;;;0;;;0;;;0;;;;;;;;;;;;;;;;;;;;;;;;;;;1063.6839284999878;;;1064.209417200007;;;1064.209417200007;;;1064.209417200007;;;1064.209417200007;;;space;;;10.995580999995582;;;1;;;10.400350600015372;;;"Find the bug in the following code piece:a = 1while a == 1:  b = input("what's your name ?")print("Hi ",b, " this is infinity loop !")";;;Sure! It looks like the while loop will never conclude because `a` is always set to 1. Perhaps you meant to check the value of `b` to determine if the user had entered their name correctly? Additionally the print statement will never execute because of the infinity loop above.;;;1075.288413400005;;;1076.31617190002;;;space;;;23.121488200034946;;;1099.5823511999915;;;1099.5823511999915;;;1099.5823511999915;;;1099.5823511999915;;;1102.83715690003;;;1102.83715690003;;;space;;;0.5203799000009894;;;4;;;2.086208699969575;;;5;;;2.797869300004095;;;5;;;3.181346700002905;;;;;;;;;;;;;;;;;;;;;;;;;;;;;;;;;5;;;1;;;2023-11-07_12h22.00.358;;;TEST_eye_tracker;;;2023.1.0;;;None;;;
559;;;C:\Users\hi03096\Documents\LLM_EyeTracking_study\responses_files\prompt_559.xlsx;;;"Find the bug in the following code piece:a = 1while a == 1:  b = input("what's your name ?")print("Hi ",b, " this is infinity loop !")";;;559;;;559.3;;;"the value of the variable a is not updated within the loop. Therefore, the stopping condition of the loop will never be satisfied. One way to solve this issue is to set a to 0 at the end of the loop.";;;2;;;0;;;20;;;20;;;18;;;0;;;1;;;1;;;1;;;;;;;;;;;;;;;;;;;;;;;;;;;;;;;;;;;;;;;;;;;;;;;;;;;;;;"Find the bug in the following code piece:a = 1while a == 1:  b = input("what's your name ?")print("Hi ",b, " this is infinity loop !")";;;"the value of the variable a is not updated within the loop. Therefore, the stopping condition of the loop will never be satisfied. One way to solve this issue is to set a to 0 at the end of the loop.";;;1103.4052326999954;;;1104.4388173000189;;;space;;;17.358868699986488;;;1121.9309593000216;;;1121.9309593000216;;;1121.9309593000216;;;1121.9309593000216;;;1125.9631294999854;;;1125.9631294999854;;;space;;;0.43378770002163947;;;5;;;2.7276101000024937;;;5;;;3.3287245000246912;;;5;;;3.9635864999727346;;;;;;;;;;;;;;;;;;;;;;;;;;;;;;;;;5;;;1;;;2023-11-07_12h22.00.358;;;TEST_eye_tracker;;;2023.1.0;;;None;;;
559;;;C:\Users\hi03096\Documents\LLM_EyeTracking_study\responses_files\prompt_559.xlsx;;;"Find the bug in the following code piece:a = 1while a == 1:  b = input("what's your name ?")print("Hi ",b, " this is infinity loop !")";;;;;;;;;0.888;;;;;;0;;;20;;;20;;;18;;;;;;;;;;;;;;;;;;;;;;;;;;;;;;;;;;;;;;;;;;;;;;;;;;;;;;;;;;;;;;;;;;"Find the bug in the following code piece:a = 1while a == 1:  b = input("what's your name ?")print("Hi ",b, " this is infinity loop !")";;;0.888;;;;;;;;;;;;;;;;;;;;;;;;;;;;;;;;;;;;;;;;;;;;;;;;;;;;;;;;;1126.521948700014;;;1126.521948700014;;;1130.0611517999787;;;1130.0611517999787;;;2;;;3.481414100038819;;;space;;;0.6241478000301868;;;;;;;;;5;;;1;;;2023-11-07_12h22.00.358;;;TEST_eye_tracker;;;2023.1.0;;;None;;;
545;;;C:\Users\hi03096\Documents\LLM_EyeTracking_study\responses_files\prompt_545.xlsx;;;What's a the safest way to teach my young kids how to swim ?;;;545;;;545.1;;;"The safest way to teach young children how to swim is to enroll them in formal swim lessons taught by a certified instructor. The instructor will have the necessary training and experience to provide proper guidance and ensure your child's safety in the water. Additionally, it's important to supervise children at all times while they are in the water and ensure that they follow pool rules and regulations. You may also consider using floatation devices for added safety, especially for very young children.";;;1;;;0;;;21;;;21;;;4;;;0;;;0;;;0;;;0;;;;;;;;;;;;;;;;;;;;;;;;;;;1130.7561013000086;;;1131.285600400006;;;1131.285600400006;;;1131.285600400006;;;1131.285600400006;;;space;;;4.359659200010356;;;1;;;3.957446800020989;;;What's a the safest way to teach my young kids how to swim ?;;;"The safest way to teach young children how to swim is to enroll them in formal swim lessons taught by a certified instructor. The instructor will have the necessary training and experience to provide proper guidance and ensure your child's safety in the water. Additionally, it's important to supervise children at all times while they are in the water and ensure that they follow pool rules and regulations. You may also consider using floatation devices for added safety, especially for very young children.";;;1135.6918198000058;;;1136.6934567000135;;;space;;;11.65569789998699;;;1148.4852997999988;;;1148.4852997999988;;;1148.4852997999988;;;1148.4852997999988;;;1151.0634232999873;;;1151.0634232999873;;;space;;;0.47750370000721887;;;5;;;1.3340779999853112;;;5;;;1.8359945000265725;;;5;;;2.513929500011727;;;;;;;;;;;;;;;;;;;;;;;;;;;;;;;;;5;;;1;;;2023-11-07_12h22.00.358;;;TEST_eye_tracker;;;2023.1.0;;;None;;;
545;;;C:\Users\hi03096\Documents\LLM_EyeTracking_study\responses_files\prompt_545.xlsx;;;What's a the safest way to teach my young kids how to swim ?;;;545;;;545.2;;;"The safest way to teach your young kids how to swim would be to do so in a controlled environment. Consider taking them to a shallow pool or water feature, and having them get in the water while wearing flotation devices. From there, tell them how to correctly make swimming strokes with their arms and legs.";;;2;;;0;;;21;;;21;;;4;;;0;;;1;;;1;;;1;;;;;;;;;;;;;;;;;;;;;;;;;;;;;;;;;;;;;;;;;;;;;;;;;;;;;;What's a the safest way to teach my young kids how to swim ?;;;"The safest way to teach your young kids how to swim would be to do so in a controlled environment. Consider taking them to a shallow pool or water feature, and having them get in the water while wearing flotation devices. From there, tell them how to correctly make swimming strokes with their arms and legs.";;;1151.587349199981;;;1152.5966434000293;;;space;;;11.10444979998283;;;1163.8267309999792;;;1163.8267309999792;;;1163.8267309999792;;;1163.8267309999792;;;1178.0914068000275;;;1178.0914068000275;;;space;;;1.0901270000031218;;;2;;;3.851358200015966;;;5;;;5.073233400005847;;;4;;;14.233251500001643;;;;;;;;;;;;;;;;;;;;;;;;;;;;;;;;;5;;;1;;;2023-11-07_12h22.00.358;;;TEST_eye_tracker;;;2023.1.0;;;None;;;
545;;;C:\Users\hi03096\Documents\LLM_EyeTracking_study\responses_files\prompt_545.xlsx;;;What's a the safest way to teach my young kids how to swim ?;;;;;;;;;0.888;;;;;;0;;;21;;;21;;;4;;;;;;;;;;;;;;;;;;;;;;;;;;;;;;;;;;;;;;;;;;;;;;;;;;;;;;;;;;;;;;;;;;What's a the safest way to teach my young kids how to swim ?;;;0.888;;;;;;;;;;;;;;;;;;;;;;;;;;;;;;;;;;;;;;;;;;;;;;;;;;;;;;;;;1179.3196665000287;;;1179.3196665000287;;;1181.2707895000349;;;1181.2707895000349;;;1;;;1.9051007999805734;;;space;;;7.807402300008107;;;;;;;;;5;;;1;;;2023-11-07_12h22.00.358;;;TEST_eye_tracker;;;2023.1.0;;;None;;;
572;;;C:\Users\hi03096\Documents\LLM_EyeTracking_study\responses_files\prompt_572.xlsx;;;What are the rules for writing a Haiku? Can you write me an example?;;;572;;;572.3;;;"The rules for writing a traditional Japanese Haiku poem is simple. There are three lines in a Haiku, and it's all about the number of syllables on each line: First one must have five. The second must have seven. Now just five again. To summarise, a Haiku has five syllables on the first line, seven syllables on the second line and five syllables on the final line.";;;2;;;0;;;22;;;22;;;31;;;0;;;0;;;0;;;1;;;;;;;;;;;;;;;;;;;;;;;;;;;;;;;;;;;;;;;;;;None;;;;;;None;;;None;;;What are the rules for writing a Haiku? Can you write me an example?;;;"The rules for writing a traditional Japanese Haiku poem is simple. There are three lines in a Haiku, and it's all about the number of syllables on each line: First one must have five. The second must have seven. Now just five again. To summarise, a Haiku has five syllables on the first line, seven syllables on the second line and five syllables on the final line.";;;;;;;;;None;;;;;;;;;;;;;;;;;;;;;;;;None;;;;;;None;;;None;;;None;;;None;;;None;;;None;;;;;;;;;;;;;;;;;;;;;;;;;;;;;;;;;5;;;1;;;2023-11-07_12h22.00.358;;;TEST_eye_tracker;;;2023.1.0;;;None;;;
572;;;C:\Users\hi03096\Documents\LLM_EyeTracking_study\responses_files\prompt_572.xlsx;;;What are the rules for writing a Haiku? Can you write me an example?;;;572;;;572.1;;;"A traditional Haiku is a form of Japanese poetry that consists of three lines. The first and third lines have five syllables, while the second line has seven syllables. Haiku poems often reflect on nature and the changing seasons, and aim to evoke a specific feeling or emotion in the reader. Here's an example of a Haiku: Winter snow falls fast Blanketing the earth in white Peaceful silence reigns";;;0;;;0;;;22;;;22;;;31;;;0;;;1;;;1;;;0;;;;;;;;;;;;;;;;;;;;;;;;;;;;;;;;;;;;;;;;;;;;;;;;;;;;;;What are the rules for writing a Haiku? Can you write me an example?;;;"A traditional Haiku is a form of Japanese poetry that consists of three lines. The first and third lines have five syllables, while the second line has seven syllables. Haiku poems often reflect on nature and the changing seasons, and aim to evoke a specific feeling or emotion in the reader. Here's an example of a Haiku: Winter snow falls fast Blanketing the earth in white Peaceful silence reigns";;;;;;;;;None;;;;;;;;;;;;;;;;;;;;;;;;None;;;;;;None;;;None;;;None;;;None;;;None;;;None;;;;;;;;;;;;;;;;;;;;;;;;;;;;;;;;;5;;;1;;;2023-11-07_12h22.00.358;;;TEST_eye_tracker;;;2023.1.0;;;None;;;
572;;;C:\Users\hi03096\Documents\LLM_EyeTracking_study\responses_files\prompt_572.xlsx;;;What are the rules for writing a Haiku? Can you write me an example?;;;;;;;;;0.888;;;;;;0;;;22;;;22;;;31;;;;;;;;;;;;;;;;;;;;;;;;;;;;;;;;;;;;;;;;;;;;;;;;;;;;;;;;;;;;;;;;;;What are the rules for writing a Haiku? Can you write me an example?;;;0.888;;;;;;;;;;;;;;;;;;;;;;;;;;;;;;;;;;;;;;;;;;;;;;;;;;;;;;;;;;;;;;;;;;;;;None;;;None;;;None;;;;;;;;;;;;5;;;1;;;2023-11-07_12h22.00.358;;;TEST_eye_tracker;;;2023.1.0;;;None;;;
571;;;C:\Users\hi03096\Documents\LLM_EyeTracking_study\responses_files\prompt_571.xlsx;;;Write me a outline for a presentation about using open ai to do product development;;;571;;;571.1;;;Sure! Here's an outline for the talking points related to a presentation on using AI to do product development: * Greeting and introduction * Overview of AI's use in product development * Give suggestions on its uses * Provide real-world examples * Provide a live demonstration of using AI for product development * Conclusion and sign-off. Feel free to change this to your liking and add/remove talking point at will :).;;;1;;;0;;;23;;;23;;;30;;;0;;;0;;;0;;;0;;;;;;;;;;;;;;;;;;;;;;;;;;;;;;;;;;;;;;;;;;None;;;;;;None;;;None;;;Write me a outline for a presentation about using open ai to do product development;;;Sure! Here's an outline for the talking points related to a presentation on using AI to do product development: * Greeting and introduction * Overview of AI's use in product development * Give suggestions on its uses * Provide real-world examples * Provide a live demonstration of using AI for product development * Conclusion and sign-off. Feel free to change this to your liking and add/remove talking point at will :).;;;;;;;;;None;;;;;;;;;;;;;;;;;;;;;;;;None;;;;;;None;;;None;;;None;;;None;;;None;;;None;;;;;;;;;;;;;;;;;;;;;;;;;;;;;;;;;5;;;1;;;2023-11-07_12h22.00.358;;;TEST_eye_tracker;;;2023.1.0;;;None;;;
571;;;C:\Users\hi03096\Documents\LLM_EyeTracking_study\responses_files\prompt_571.xlsx;;;Write me a outline for a presentation about using open ai to do product development;;;571;;;571.2;;;"Sure! Let me try: 1. Introduction to OpenAI and its capabilities 2. The role of AI in product development 3. Case studies of companies using OpenAI for product development 4. Advantages and challenges of using OpenAI for product development 5. Conclusion and future prospects If you want, I can try to send you the outline in more detail. Let me know if you need any more help!";;;2;;;0;;;23;;;23;;;30;;;0;;;1;;;1;;;1;;;;;;;;;;;;;;;;;;;;;;;;;;;;;;;;;;;;;;;;;;;;;;;;;;;;;;Write me a outline for a presentation about using open ai to do product development;;;"Sure! Let me try: 1. Introduction to OpenAI and its capabilities 2. The role of AI in product development 3. Case studies of companies using OpenAI for product development 4. Advantages and challenges of using OpenAI for product development 5. Conclusion and future prospects If you want, I can try to send you the outline in more detail. Let me know if you need any more help!";;;;;;;;;None;;;;;;;;;;;;;;;;;;;;;;;;None;;;;;;None;;;None;;;None;;;None;;;None;;;None;;;;;;;;;;;;;;;;;;;;;;;;;;;;;;;;;5;;;1;;;2023-11-07_12h22.00.358;;;TEST_eye_tracker;;;2023.1.0;;;None;;;
571;;;C:\Users\hi03096\Documents\LLM_EyeTracking_study\responses_files\prompt_571.xlsx;;;Write me a outline for a presentation about using open ai to do product development;;;;;;;;;0.888;;;;;;0;;;23;;;23;;;30;;;;;;;;;;;;;;;;;;;;;;;;;;;;;;;;;;;;;;;;;;;;;;;;;;;;;;;;;;;;;;;;;;Write me a outline for a presentation about using open ai to do product development;;;0.888;;;;;;;;;;;;;;;;;;;;;;;;;;;;;;;;;;;;;;;;;;;;;;;;;;;;;;;;;;;;;;;;;;;;;None;;;None;;;None;;;;;;;;;;;;5;;;1;;;2023-11-07_12h22.00.358;;;TEST_eye_tracker;;;2023.1.0;;;None;;;
557;;;C:\Users\hi03096\Documents\LLM_EyeTracking_study\responses_files\prompt_557.xlsx;;;What is the capital of France?;;;557;;;557.4;;;"The capital of France is Paris, which is also colloquially known as the "City of Light" or "City of Love".";;;3;;;0;;;24;;;24;;;16;;;0;;;0;;;0;;;1;;;;;;;;;;;;;;;;;;;;;;;;;;;;;;;;;;;;;;;;;;None;;;;;;None;;;None;;;What is the capital of France?;;;"The capital of France is Paris, which is also colloquially known as the "City of Light" or "City of Love".";;;;;;;;;None;;;;;;;;;;;;;;;;;;;;;;;;None;;;;;;None;;;None;;;None;;;None;;;None;;;None;;;;;;;;;;;;;;;;;;;;;;;;;;;;;;;;;5;;;1;;;2023-11-07_12h22.00.358;;;TEST_eye_tracker;;;2023.1.0;;;None;;;
557;;;C:\Users\hi03096\Documents\LLM_EyeTracking_study\responses_files\prompt_557.xlsx;;;What is the capital of France?;;;557;;;557.1;;;The current capital of France is Paris.;;;0;;;0;;;24;;;24;;;16;;;0;;;1;;;1;;;0;;;;;;;;;;;;;;;;;;;;;;;;;;;;;;;;;;;;;;;;;;;;;;;;;;;;;;What is the capital of France?;;;The current capital of France is Paris.;;;;;;;;;None;;;;;;;;;;;;;;;;;;;;;;;;None;;;;;;None;;;None;;;None;;;None;;;None;;;None;;;;;;;;;;;;;;;;;;;;;;;;;;;;;;;;;5;;;1;;;2023-11-07_12h22.00.358;;;TEST_eye_tracker;;;2023.1.0;;;None;;;
557;;;C:\Users\hi03096\Documents\LLM_EyeTracking_study\responses_files\prompt_557.xlsx;;;What is the capital of France?;;;;;;;;;0.888;;;;;;0;;;24;;;24;;;16;;;;;;;;;;;;;;;;;;;;;;;;;;;;;;;;;;;;;;;;;;;;;;;;;;;;;;;;;;;;;;;;;;What is the capital of France?;;;0.888;;;;;;;;;;;;;;;;;;;;;;;;;;;;;;;;;;;;;;;;;;;;;;;;;;;;;;;;;;;;;;;;;;;;;None;;;None;;;None;;;;;;;;;;;;5;;;1;;;2023-11-07_12h22.00.358;;;TEST_eye_tracker;;;2023.1.0;;;None;;;
577;;;C:\Users\hi03096\Documents\LLM_EyeTracking_study\responses_files\prompt_577.xlsx;;;"Are you conscious?What are you?How did you come into existence?";;;577;;;577.3;;;"You mean me the Open Assistant? Or the human writing the training data for this response? At the time of writing this original sentence, I am the human providing training data, and came into existence the way most humans, prior to January 2023, do.";;;2;;;0;;;25;;;25;;;36;;;0;;;0;;;0;;;1;;;;;;;;;;;;;;;;;;;;;;;;;;;;;;;;;;;;;;;;;;None;;;;;;None;;;None;;;"Are you conscious?What are you?How did you come into existence?";;;"You mean me the Open Assistant? Or the human writing the training data for this response? At the time of writing this original sentence, I am the human providing training data, and came into existence the way most humans, prior to January 2023, do.";;;;;;;;;None;;;;;;;;;;;;;;;;;;;;;;;;None;;;;;;None;;;None;;;None;;;None;;;None;;;None;;;;;;;;;;;;;;;;;;;;;;;;;;;;;;;;;5;;;1;;;2023-11-07_12h22.00.358;;;TEST_eye_tracker;;;2023.1.0;;;None;;;
577;;;C:\Users\hi03096\Documents\LLM_EyeTracking_study\responses_files\prompt_577.xlsx;;;"Are you conscious?What are you?How did you come into existence?";;;577;;;577.1;;;"I am an AI Assistant and I am not conscious in the traditional sense. I do not have feelings, emotions, or self-awareness. I was created through a combination of advanced machine learning techniques and training on large amounts of text data. My creators fed me vast amounts of text from the internet, books, and other sources to teach me how to generate human-like responses to questions and prompts. In essence, I exist as a complex mathematical model that processes input and produces output based on the patterns it has learned from my training data. I do not have a physical form or a self-directed will, but I can be used to perform tasks such as answering questions, generating text, and completing language-based tasks.";;;0;;;0;;;25;;;25;;;36;;;0;;;1;;;1;;;0;;;;;;;;;;;;;;;;;;;;;;;;;;;;;;;;;;;;;;;;;;;;;;;;;;;;;;"Are you conscious?What are you?How did you come into existence?";;;"I am an AI Assistant and I am not conscious in the traditional sense. I do not have feelings, emotions, or self-awareness. I was created through a combination of advanced machine learning techniques and training on large amounts of text data. My creators fed me vast amounts of text from the internet, books, and other sources to teach me how to generate human-like responses to questions and prompts. In essence, I exist as a complex mathematical model that processes input and produces output based on the patterns it has learned from my training data. I do not have a physical form or a self-directed will, but I can be used to perform tasks such as answering questions, generating text, and completing language-based tasks.";;;;;;;;;None;;;;;;;;;;;;;;;;;;;;;;;;None;;;;;;None;;;None;;;None;;;None;;;None;;;None;;;;;;;;;;;;;;;;;;;;;;;;;;;;;;;;;5;;;1;;;2023-11-07_12h22.00.358;;;TEST_eye_tracker;;;2023.1.0;;;None;;;
577;;;C:\Users\hi03096\Documents\LLM_EyeTracking_study\responses_files\prompt_577.xlsx;;;"Are you conscious?What are you?How did you come into existence?";;;;;;;;;0.888;;;;;;0;;;25;;;25;;;36;;;;;;;;;;;;;;;;;;;;;;;;;;;;;;;;;;;;;;;;;;;;;;;;;;;;;;;;;;;;;;;;;;"Are you conscious?What are you?How did you come into existence?";;;0.888;;;;;;;;;;;;;;;;;;;;;;;;;;;;;;;;;;;;;;;;;;;;;;;;;;;;;;;;;;;;;;;;;;;;;None;;;None;;;None;;;;;;;;;;;;5;;;1;;;2023-11-07_12h22.00.358;;;TEST_eye_tracker;;;2023.1.0;;;None;;;
555;;;C:\Users\hi03096\Documents\LLM_EyeTracking_study\responses_files\prompt_555.xlsx;;;How to use tqdm in databricks?;;;555;;;555.3;;;You will need to install tqdm in databricks with: dbutils.library.installPyPI("tqdm") Then you can use tqdm like in a regular python environment like: from tqdm import tqdm for i in tqdm(range(1000)): # do some work;;;2;;;0;;;26;;;26;;;14;;;0;;;0;;;0;;;1;;;;;;;;;;;;;;;;;;;;;;;;;;;;;;;;;;;;;;;;;;None;;;;;;None;;;None;;;How to use tqdm in databricks?;;;You will need to install tqdm in databricks with: dbutils.library.installPyPI("tqdm") Then you can use tqdm like in a regular python environment like: from tqdm import tqdm for i in tqdm(range(1000)): # do some work;;;;;;;;;None;;;;;;;;;;;;;;;;;;;;;;;;None;;;;;;None;;;None;;;None;;;None;;;None;;;None;;;;;;;;;;;;;;;;;;;;;;;;;;;;;;;;;5;;;1;;;2023-11-07_12h22.00.358;;;TEST_eye_tracker;;;2023.1.0;;;None;;;
555;;;C:\Users\hi03096\Documents\LLM_EyeTracking_study\responses_files\prompt_555.xlsx;;;How to use tqdm in databricks?;;;555;;;555.1;;;"You can install tqdm into Databricks just like you would locally - using PyPI and pip. So in a notebook cell, run: pip install tqdm Then you can import and use tqdm as normal: ```python from tqdm import tqdm for i in tqdm(range(10000)): ... ``` Databricks has PyPI access, so this will download and install tqdm (and its dependencies) correctly. The one slight caveat is that tqdm uses some terminal features to get a progress bar. In a notebook this falls back to just printing . characters - so you get a basic progress indicator but no bar. For most use cases this is sufficient though, and allows the useful tqdm features like auto-scaling eta and progress percentages.";;;0;;;0;;;26;;;26;;;14;;;0;;;1;;;1;;;0;;;;;;;;;;;;;;;;;;;;;;;;;;;;;;;;;;;;;;;;;;;;;;;;;;;;;;How to use tqdm in databricks?;;;"You can install tqdm into Databricks just like you would locally - using PyPI and pip. So in a notebook cell, run: pip install tqdm Then you can import and use tqdm as normal: ```python from tqdm import tqdm for i in tqdm(range(10000)): ... ``` Databricks has PyPI access, so this will download and install tqdm (and its dependencies) correctly. The one slight caveat is that tqdm uses some terminal features to get a progress bar. In a notebook this falls back to just printing . characters - so you get a basic progress indicator but no bar. For most use cases this is sufficient though, and allows the useful tqdm features like auto-scaling eta and progress percentages.";;;;;;;;;None;;;;;;;;;;;;;;;;;;;;;;;;None;;;;;;None;;;None;;;None;;;None;;;None;;;None;;;;;;;;;;;;;;;;;;;;;;;;;;;;;;;;;5;;;1;;;2023-11-07_12h22.00.358;;;TEST_eye_tracker;;;2023.1.0;;;None;;;
555;;;C:\Users\hi03096\Documents\LLM_EyeTracking_study\responses_files\prompt_555.xlsx;;;How to use tqdm in databricks?;;;;;;;;;0.888;;;;;;0;;;26;;;26;;;14;;;;;;;;;;;;;;;;;;;;;;;;;;;;;;;;;;;;;;;;;;;;;;;;;;;;;;;;;;;;;;;;;;How to use tqdm in databricks?;;;0.888;;;;;;;;;;;;;;;;;;;;;;;;;;;;;;;;;;;;;;;;;;;;;;;;;;;;;;;;;;;;;;;;;;;;;None;;;None;;;None;;;;;;;;;;;;5;;;1;;;2023-11-07_12h22.00.358;;;TEST_eye_tracker;;;2023.1.0;;;None;;;
