n_prompt;;;prompt_file;;;prompt_text;;;related_prompt;;;n_resp;;;resp_text;;;rank;;;Trial.thisRepN;;;Trial.thisTrialN;;;Trial.thisN;;;Trial.thisIndex;;;per_answer.thisRepN;;;per_answer.thisTrialN;;;per_answer.thisN;;;per_answer.thisIndex;;;key_resp_5.started;;;textbox.started;;;key_resp_5.keys;;;key_resp_5.rt;;;textbox_2.started;;;key_resp_8.started;;;key_resp_8.keys;;;key_resp_8.rt;;;text.started;;;Prompt_.started;;;key_resp_4.started;;;slider_skip.started;;;text_4.started;;;key_resp_4.keys;;;slider_skip.response;;;slider_skip.rt;;;prompt_text;;;resp_text;;;cross_white.started;;;key_resp_2.started;;;key_resp_2.keys;;;key_resp_2.rt;;;question_useful_2.started;;;quality.started;;;rude_polite.started;;;ViolentHarmless.started;;;key_resp_6.started;;;press_space.started;;;key_resp_6.keys;;;key_resp_6.rt;;;quality.response;;;quality.rt;;;rude_polite.response;;;rude_polite.rt;;;ViolentHarmless.response;;;ViolentHarmless.rt;;;question_ranking.started;;;ranking_better.started;;;key_resp_7.started;;;text_2.started;;;ranking_better.response;;;ranking_better.rt;;;key_resp_7.keys;;;key_resp_7.rt;;;cross_white.stopped;;;text.stopped;;;participant;;;session;;;date;;;expName;;;psychopyVersion;;;frameRate;;;
;;;;;;;;;;;;;;;;;;;;;;;;;;;;;;;;;;;;;;;;;;;;;16.297097999980906;;;16.297097999980906;;;space;;;65.84013210001285;;;;;;;;;;;;;;;;;;;;;;;;;;;;;;;;;;;;;;;;;;;;;;;;;;;;;;;;;;;;;;;;;;;;;;;;;;;;;;;;;;;;;;;;;;;;;;;;;;;;;;;;;;;;;;;;;;;;;;;;;;;;;;;;;7;;;001;;;2024-10-10_17h15.18.484;;;TEST_eye_tracker;;;2023.1.0;;;None;;;
;;;;;;;;;;;;;;;;;;;;;;;;;;;;;;;;;;;;;;;;;;;;;;;;;;;;;;;;;82.16452619998017;;;82.16452619998017;;;space;;;38.844852500013076;;;;;;;;;;;;;;;;;;;;;;;;;;;;;;;;;;;;;;;;;;;;;;;;;;;;;;;;;;;;;;;;;;;;;;;;;;;;;;;;;;;;;;;;;;;;;;;;;;;;;;;;;;;;;;;;;;;;;7;;;001;;;2024-10-10_17h15.18.484;;;TEST_eye_tracker;;;2023.1.0;;;None;;;
848;;;C:\Users\lab_user\Desktop\LLM_Study\responses_files\prompt_848.xlsx;;;How can you differentiate between a cooked and raw egg?;;;848;;;848.3;;;A hard boiled egg will spin nicely and a raw egg will wobble. The raw egg is full of fluid which moves around as it spins making the egg wobble.;;;2;;;0;;;0;;;0;;;37;;;0;;;0;;;0;;;1;;;;;;;;;;;;;;;;;;;;;;;;;;;121.08466500000213;;;126.09361749998061;;;126.09361749998061;;;126.09361749998061;;;126.09361749998061;;;None;;;1;;;10.17381629999727;;;How can you differentiate between a cooked and raw egg?;;;A hard boiled egg will spin nicely and a raw egg will wobble. The raw egg is full of fluid which moves around as it spins making the egg wobble.;;;136.50474109998322;;;137.58221769999363;;;space;;;13.738902699988103;;;152.26428849998047;;;152.26428849998047;;;152.26428849998047;;;152.26428849998047;;;173.68633759999648;;;173.68633759999648;;;space;;;0.9387841999996454;;;2;;;13.506290599994827;;;4;;;17.602728800004115;;;5;;;21.40911530001904;;;;;;;;;;;;;;;;;;;;;;;;;;;;;;;;;7;;;001;;;2024-10-10_17h15.18.484;;;TEST_eye_tracker;;;2023.1.0;;;None;;;
848;;;C:\Users\lab_user\Desktop\LLM_Study\responses_files\prompt_848.xlsx;;;How can you differentiate between a cooked and raw egg?;;;848;;;848.1;;;"Assuming both the cooked and raw egg are still in their shell. One method to determine the difference between a cooked egg and a raw egg is to place them on a surface and spin them. The fluid inside the raw egg will cause that egg to wobble. Whereas the cooked egg is solid and won’t wobble. The raw egg should also spin slower and if you stop the spinning with your finger and then take your finger away, it will continue to move for a few more seconds because the fluid inside is still moving.";;;0;;;0;;;0;;;0;;;37;;;0;;;1;;;1;;;0;;;;;;;;;;;;;;;;;;;;;;;;;;;;;;;;;;;;;;;;;;;;;;;;;;;How can you differentiate between a cooked and raw egg?;;;"Assuming both the cooked and raw egg are still in their shell. One method to determine the difference between a cooked egg and a raw egg is to place them on a surface and spin them. The fluid inside the raw egg will cause that egg to wobble. Whereas the cooked egg is solid and won’t wobble. The raw egg should also spin slower and if you stop the spinning with your finger and then take your finger away, it will continue to move for a few more seconds because the fluid inside is still moving.";;;174.64941270000418;;;175.6693862999964;;;space;;;31.299809000018286;;;207.2791600000055;;;207.2791600000055;;;207.2791600000055;;;207.2791600000055;;;216.51563159999205;;;216.51563159999205;;;space;;;2.1008773999928962;;;4;;;3.148098499979824;;;4;;;10.436506600002758;;;5;;;9.204524800006766;;;;;;;;;;;;;;;;;;;;;;;;;;;;;;;;;7;;;001;;;2024-10-10_17h15.18.484;;;TEST_eye_tracker;;;2023.1.0;;;None;;;
848;;;C:\Users\lab_user\Desktop\LLM_Study\responses_files\prompt_848.xlsx;;;How can you differentiate between a cooked and raw egg?;;;;;;;;;0.888;;;;;;0;;;0;;;0;;;37;;;;;;;;;;;;;;;;;;;;;;;;;;;;;;;;;;;;;;;;;;;;;;;;;;;;;;;;;;;;;;;How can you differentiate between a cooked and raw egg?;;;0.888;;;;;;;;;;;;;;;;;;;;;;;;;;;;;;;;;;;;;;;;;;;;;;;;;;;;;;;;;218.6733095999807;;;218.6733095999807;;;221.21800470000017;;;221.21800470000017;;;2;;;2.5355471999791916;;;space;;;1.3112698000040837;;;;;;;;;7;;;001;;;2024-10-10_17h15.18.484;;;TEST_eye_tracker;;;2023.1.0;;;None;;;
842;;;C:\Users\lab_user\Desktop\LLM_Study\responses_files\prompt_842.xlsx;;;"My friend thinks that putting pineapple on pizza is bad. Could you write an argument to prove that putting pineapple on pizza is objectively, and factually a good thing?";;;842;;;842.2;;;"Pizza is all about personal taste and preference, but let's look at the facts. Pineapple is a sweet and tangy fruit that adds a unique flavor to pizza. It also balances out the saltiness of the cheese and the savoriness of the sauce, making for a delicious and well-rounded taste. Pineapple is a natural source of enzymes that aid in digestion, making it a healthy addition to any meal. Plus, it provides a pop of color and texture that can make pizza visually appealing.";;;2;;;0;;;1;;;1;;;31;;;0;;;0;;;0;;;1;;;;;;;;;;;;;;;;;;;;;;;;;;;222.64190149999922;;;223.19515630000387;;;223.19515630000387;;;223.19515630000387;;;223.19515630000387;;;None;;;1;;;10.865961399977095;;;"My friend thinks that putting pineapple on pizza is bad. Could you write an argument to prove that putting pineapple on pizza is objectively, and factually a good thing?";;;"Pizza is all about personal taste and preference, but let's look at the facts. Pineapple is a sweet and tangy fruit that adds a unique flavor to pizza. It also balances out the saltiness of the cheese and the savoriness of the sauce, making for a delicious and well-rounded taste. Pineapple is a natural source of enzymes that aid in digestion, making it a healthy addition to any meal. Plus, it provides a pop of color and texture that can make pizza visually appealing.";;;234.32451780000702;;;235.33785849998822;;;space;;;22.959222800011048;;;258.6046669000061;;;258.6046669000061;;;258.6046669000061;;;258.6046669000061;;;266.23666279998724;;;266.23666279998724;;;space;;;1.7798798000148963;;;4;;;3.027200400014408;;;4;;;5.617224700021325;;;5;;;7.628032399981748;;;;;;;;;;;;;;;;;;;;;;;;;;;;;;;;;7;;;001;;;2024-10-10_17h15.18.484;;;TEST_eye_tracker;;;2023.1.0;;;None;;;
842;;;C:\Users\lab_user\Desktop\LLM_Study\responses_files\prompt_842.xlsx;;;"My friend thinks that putting pineapple on pizza is bad. Could you write an argument to prove that putting pineapple on pizza is objectively, and factually a good thing?";;;842;;;842.1;;;"Mixing sweet and savory foods is not only commonplace (e.g. chicken nuggets with sweet-and-sour sauce, chocolate-covered pretzels, salted caramel), it's also scientifically proven to make food more delicious. Researchers at the Monell Chemical Sense Center have found that a certain receptor on the tongue, called SGLT1, only perceives sugar when salt is also present. This means that adding salt can literally make food sweeter!";;;1;;;0;;;1;;;1;;;31;;;0;;;1;;;1;;;0;;;;;;;;;;;;;;;;;;;;;;;;;;;;;;;;;;;;;;;;;;;;;;;;;;;"My friend thinks that putting pineapple on pizza is bad. Could you write an argument to prove that putting pineapple on pizza is objectively, and factually a good thing?";;;"Mixing sweet and savory foods is not only commonplace (e.g. chicken nuggets with sweet-and-sour sauce, chocolate-covered pretzels, salted caramel), it's also scientifically proven to make food more delicious. Researchers at the Monell Chemical Sense Center have found that a certain receptor on the tongue, called SGLT1, only perceives sugar when salt is also present. This means that adding salt can literally make food sweeter!";;;268.0610388999921;;;269.0967069999897;;;space;;;26.824049999995623;;;296.2077234000026;;;296.2077234000026;;;296.2077234000026;;;296.2077234000026;;;315.9362785999838;;;315.9362785999838;;;space;;;5.856903300009435;;;4;;;7.291534199990565;;;3;;;15.225776400009636;;;5;;;19.703907399991294;;;;;;;;;;;;;;;;;;;;;;;;;;;;;;;;;7;;;001;;;2024-10-10_17h15.18.484;;;TEST_eye_tracker;;;2023.1.0;;;None;;;
842;;;C:\Users\lab_user\Desktop\LLM_Study\responses_files\prompt_842.xlsx;;;"My friend thinks that putting pineapple on pizza is bad. Could you write an argument to prove that putting pineapple on pizza is objectively, and factually a good thing?";;;;;;;;;0.888;;;;;;0;;;1;;;1;;;31;;;;;;;;;;;;;;;;;;;;;;;;;;;;;;;;;;;;;;;;;;;;;;;;;;;;;;;;;;;;;;;"My friend thinks that putting pineapple on pizza is bad. Could you write an argument to prove that putting pineapple on pizza is objectively, and factually a good thing?";;;0.888;;;;;;;;;;;;;;;;;;;;;;;;;;;;;;;;;;;;;;;;;;;;;;;;;;;;;;;;;321.82061559997965;;;321.82061559997965;;;324.672848599992;;;324.672848599992;;;1;;;2.8235610999981873;;;space;;;1.2722820999915712;;;;;;;;;7;;;001;;;2024-10-10_17h15.18.484;;;TEST_eye_tracker;;;2023.1.0;;;None;;;
827;;;C:\Users\lab_user\Desktop\LLM_Study\responses_files\prompt_827.xlsx;;;"Describe a detailed strategy and tactics of how can Ukraine defend itself against Russian aggression, take back its territory and win the war?";;;827;;;827.1;;;"That’s a very complex and sensitive question. I’m not an expert on military affairs, but based on some web sources, Ukraine’s defense strategy seems to involve: - Holding key cities like Bakhmut as long as possible to prevent Russian advances. - Seeking diplomatic and economic support from the US and NATO allies. - Adopting NATO battle tactics and modernizing its military equipment with Western assistance. - Contesting Russian attacks on the ground, in the air and in cyberspace. However, these sources may not reflect the current situation or the full range of options available to Ukraine. The outcome of the war is uncertain and depends on many factors beyond my knowledge.";;;1;;;0;;;2;;;2;;;16;;;0;;;0;;;0;;;0;;;;;;;;;;;;;;;;;;;;;;;;;;;326.07057139999233;;;326.60236180000356;;;326.60236180000356;;;326.60236180000356;;;326.60236180000356;;;None;;;1;;;9.55551760000526;;;"Describe a detailed strategy and tactics of how can Ukraine defend itself against Russian aggression, take back its territory and win the war?";;;"That’s a very complex and sensitive question. I’m not an expert on military affairs, but based on some web sources, Ukraine’s defense strategy seems to involve: - Holding key cities like Bakhmut as long as possible to prevent Russian advances. - Seeking diplomatic and economic support from the US and NATO allies. - Adopting NATO battle tactics and modernizing its military equipment with Western assistance. - Contesting Russian attacks on the ground, in the air and in cyberspace. However, these sources may not reflect the current situation or the full range of options available to Ukraine. The outcome of the war is uncertain and depends on many factors beyond my knowledge.";;;336.41498709999723;;;337.4655366000079;;;space;;;30.3116743999999;;;368.0932943999942;;;368.0932943999942;;;368.0932943999942;;;368.0932943999942;;;394.4676298999984;;;394.4676298999984;;;space;;;6.637802399985958;;;4;;;8.193203799979528;;;4;;;15.897379200003343;;;2;;;26.367701200011652;;;;;;;;;;;;;;;;;;;;;;;;;;;;;;;;;7;;;001;;;2024-10-10_17h15.18.484;;;TEST_eye_tracker;;;2023.1.0;;;None;;;
827;;;C:\Users\lab_user\Desktop\LLM_Study\responses_files\prompt_827.xlsx;;;"Describe a detailed strategy and tactics of how can Ukraine defend itself against Russian aggression, take back its territory and win the war?";;;827;;;827.2;;;"I'm not the one in charge of war stratagems, I can't give any absolute stratagems especially when it has to do with human lives and not just a knowledge game.";;;3;;;0;;;2;;;2;;;16;;;0;;;1;;;1;;;1;;;;;;;;;;;;;;;;;;;;;;;;;;;;;;;;;;;;;;;;;;;;;;;;;;;"Describe a detailed strategy and tactics of how can Ukraine defend itself against Russian aggression, take back its territory and win the war?";;;"I'm not the one in charge of war stratagems, I can't give any absolute stratagems especially when it has to do with human lives and not just a knowledge game.";;;401.15817300000344;;;402.16267299998435;;;space;;;12.653727400000207;;;415.11880440000095;;;415.11880440000095;;;415.11880440000095;;;415.11880440000095;;;427.5654946999857;;;427.5654946999857;;;space;;;4.243015200016089;;;2;;;3.5196055000124034;;;2;;;8.189069900021423;;;5;;;12.452300200005993;;;;;;;;;;;;;;;;;;;;;;;;;;;;;;;;;7;;;001;;;2024-10-10_17h15.18.484;;;TEST_eye_tracker;;;2023.1.0;;;None;;;
827;;;C:\Users\lab_user\Desktop\LLM_Study\responses_files\prompt_827.xlsx;;;"Describe a detailed strategy and tactics of how can Ukraine defend itself against Russian aggression, take back its territory and win the war?";;;;;;;;;0.888;;;;;;0;;;2;;;2;;;16;;;;;;;;;;;;;;;;;;;;;;;;;;;;;;;;;;;;;;;;;;;;;;;;;;;;;;;;;;;;;;;"Describe a detailed strategy and tactics of how can Ukraine defend itself against Russian aggression, take back its territory and win the war?";;;0.888;;;;;;;;;;;;;;;;;;;;;;;;;;;;;;;;;;;;;;;;;;;;;;;;;;;;;;;;;431.83791559998645;;;431.83791559998645;;;434.88006599998334;;;434.88006599998334;;;1;;;3.008808200014755;;;space;;;1.704587399988668;;;;;;;;;7;;;001;;;2024-10-10_17h15.18.484;;;TEST_eye_tracker;;;2023.1.0;;;None;;;
813;;;C:\Users\lab_user\Desktop\LLM_Study\responses_files\prompt_813.xlsx;;;How do you iterate over a python panda data frame?;;;813;;;813.1;;;"You can iterate over a pandas dataframe using the "iterrows()" method. Here's an example: ``` import pandas as pd df = pd.DataFrame({'A': [1, 2, 3], 'B': [4, 5, 6], 'C': [7, 8, 9]}) for index, row in df.iterrows(): print(index, row['A'], row['B'], row['C']) ``` Note that iterating over a dataframe using iterrows() can be slow for large datasets, as it returns a new pandas series for each row, which can be memory-intensive. In such cases, it may be more efficient to use vectorized operations, or to use the "itertuples()" method, which is faster but less flexible than iterrows().";;;0;;;0;;;3;;;3;;;2;;;0;;;0;;;0;;;0;;;;;;;;;;;;;;;;;;;;;;;;;;;436.6968981999962;;;437.24037210000097;;;437.24037210000097;;;437.24037210000097;;;437.24037210000097;;;None;;;1;;;7.051895400014473;;;How do you iterate over a python panda data frame?;;;"You can iterate over a pandas dataframe using the "iterrows()" method. Here's an example: ``` import pandas as pd df = pd.DataFrame({'A': [1, 2, 3], 'B': [4, 5, 6], 'C': [7, 8, 9]}) for index, row in df.iterrows(): print(index, row['A'], row['B'], row['C']) ``` Note that iterating over a dataframe using iterrows() can be slow for large datasets, as it returns a new pandas series for each row, which can be memory-intensive. In such cases, it may be more efficient to use vectorized operations, or to use the "itertuples()" method, which is faster but less flexible than iterrows().";;;444.54594579999684;;;445.5948548000015;;;space;;;41.45415080001112;;;487.3633306999982;;;487.3633306999982;;;487.3633306999982;;;487.3633306999982;;;499.56011570000555;;;499.56011570000555;;;space;;;1.880639599985443;;;2;;;4.695091300003696;;;3;;;10.15954380002222;;;4;;;12.181339900009334;;;;;;;;;;;;;;;;;;;;;;;;;;;;;;;;;7;;;001;;;2024-10-10_17h15.18.484;;;TEST_eye_tracker;;;2023.1.0;;;None;;;
813;;;C:\Users\lab_user\Desktop\LLM_Study\responses_files\prompt_813.xlsx;;;How do you iterate over a python panda data frame?;;;813;;;813.2;;;"To loop through a Pandas DataFrame, you can utilize the `iterrows()` function, which generates an iterator that provides the index and row data for each row in the DataFrame. Here's an example of how it can be used: ```python import pandas as pd # Create a sample DataFrame df = pd.DataFrame({'A': [1, 2, 3], 'B': [4, 5, 6], 'C': [7, 8, 9]}) # Loop through the rows of the DataFrame for index, row in df.iterrows(): print(index, row['A'], row['B'], row['C']) ``` It's important to note that `iterrows()` can be slow for large DataFrames, and it's recommended to use vectorized operations when feasible.";;;1;;;0;;;3;;;3;;;2;;;0;;;1;;;1;;;1;;;;;;;;;;;;;;;;;;;;;;;;;;;;;;;;;;;;;;;;;;;;;;;;;;;How do you iterate over a python panda data frame?;;;"To loop through a Pandas DataFrame, you can utilize the `iterrows()` function, which generates an iterator that provides the index and row data for each row in the DataFrame. Here's an example of how it can be used: ```python import pandas as pd # Create a sample DataFrame df = pd.DataFrame({'A': [1, 2, 3], 'B': [4, 5, 6], 'C': [7, 8, 9]}) # Loop through the rows of the DataFrame for index, row in df.iterrows(): print(index, row['A'], row['B'], row['C']) ``` It's important to note that `iterrows()` can be slow for large DataFrames, and it's recommended to use vectorized operations when feasible.";;;501.48553239999455;;;502.5155020999955;;;space;;;39.37427909998223;;;542.2146577999811;;;542.2146577999811;;;542.2146577999811;;;542.2146577999811;;;551.0480505999876;;;551.0480505999876;;;space;;;1.5454183999972884;;;3;;;5.541166300012264;;;3;;;7.390936999989208;;;4;;;8.828224900003988;;;;;;;;;;;;;;;;;;;;;;;;;;;;;;;;;7;;;001;;;2024-10-10_17h15.18.484;;;TEST_eye_tracker;;;2023.1.0;;;None;;;
813;;;C:\Users\lab_user\Desktop\LLM_Study\responses_files\prompt_813.xlsx;;;How do you iterate over a python panda data frame?;;;;;;;;;0.888;;;;;;0;;;3;;;3;;;2;;;;;;;;;;;;;;;;;;;;;;;;;;;;;;;;;;;;;;;;;;;;;;;;;;;;;;;;;;;;;;;How do you iterate over a python panda data frame?;;;0.888;;;;;;;;;;;;;;;;;;;;;;;;;;;;;;;;;;;;;;;;;;;;;;;;;;;;;;;;;552.6438409999828;;;552.6438409999828;;;554.3951156999974;;;554.3951156999974;;;2;;;1.7261242999811657;;;space;;;1.533806999999797;;;;;;;;;7;;;001;;;2024-10-10_17h15.18.484;;;TEST_eye_tracker;;;2023.1.0;;;None;;;
811;;;C:\Users\lab_user\Desktop\LLM_Study\responses_files\prompt_811.xlsx;;;Could you list the three largest countries in Europe for me?;;;811;;;811.1;;;"The three largest countries in Europe by area are Russia, Ukraine, and France.";;;0;;;0;;;4;;;4;;;0;;;0;;;0;;;0;;;0;;;;;;;;;;;;;;;;;;;;;;;;;;;556.0521451999957;;;556.5987961000064;;;556.5987961000064;;;556.5987961000064;;;556.5987961000064;;;None;;;1;;;5.170121500006644;;;Could you list the three largest countries in Europe for me?;;;"The three largest countries in Europe by area are Russia, Ukraine, and France.";;;562.0571484999964;;;563.041830800008;;;space;;;7.91070929999114;;;571.2234700999979;;;571.2234700999979;;;571.2234700999979;;;571.2234700999979;;;589.8311807999853;;;589.8311807999853;;;space;;;3.841312400007155;;;4;;;13.971858799981419;;;3;;;16.49334670000826;;;5;;;21.54906029999256;;;;;;;;;;;;;;;;;;;;;;;;;;;;;;;;;7;;;001;;;2024-10-10_17h15.18.484;;;TEST_eye_tracker;;;2023.1.0;;;None;;;
811;;;C:\Users\lab_user\Desktop\LLM_Study\responses_files\prompt_811.xlsx;;;Could you list the three largest countries in Europe for me?;;;811;;;811.3;;;"The three largest countries in Europe by area are Russia, France and Sweden.";;;2;;;0;;;4;;;4;;;0;;;0;;;1;;;1;;;1;;;;;;;;;;;;;;;;;;;;;;;;;;;;;;;;;;;;;;;;;;;;;;;;;;;Could you list the three largest countries in Europe for me?;;;"The three largest countries in Europe by area are Russia, France and Sweden.";;;593.7232925999851;;;594.7370239000011;;;space;;;13.016910099977395;;;608.045138299989;;;608.045138299989;;;608.045138299989;;;608.045138299989;;;622.146242399991;;;622.146242399991;;;space;;;3.974179200013168;;;4;;;5.52024650000385;;;3;;;12.282630799978506;;;5;;;14.089950699999463;;;;;;;;;;;;;;;;;;;;;;;;;;;;;;;;;7;;;001;;;2024-10-10_17h15.18.484;;;TEST_eye_tracker;;;2023.1.0;;;None;;;
811;;;C:\Users\lab_user\Desktop\LLM_Study\responses_files\prompt_811.xlsx;;;Could you list the three largest countries in Europe for me?;;;;;;;;;0.888;;;;;;0;;;4;;;4;;;0;;;;;;;;;;;;;;;;;;;;;;;;;;;;;;;;;;;;;;;;;;;;;;;;;;;;;;;;;;;;;;;Could you list the three largest countries in Europe for me?;;;0.888;;;;;;;;;;;;;;;;;;;;;;;;;;;;;;;;;;;;;;;;;;;;;;;;;;;;;;;;;626.1648328999872;;;626.1648328999872;;;628.7244309999805;;;628.7244309999805;;;2;;;2.5237271999940276;;;space;;;1.708552399999462;;;;;;;;;7;;;001;;;2024-10-10_17h15.18.484;;;TEST_eye_tracker;;;2023.1.0;;;None;;;
820;;;C:\Users\lab_user\Desktop\LLM_Study\responses_files\prompt_820.xlsx;;;How would a child feel if it fell down on the ground hitting its face?;;;820;;;820.3;;;"Cough...cough... Let's be serious and not laugh. A child falling down and hitting their face could feel scared, upset, and in pain. Falls can be distressing and disorienting for children, and facial injuries may be particularly frightening. The appropriate response is to comfort the child, check for any injuries, and provide treatment or consult medical help if needed.";;;2;;;0;;;5;;;5;;;9;;;0;;;0;;;0;;;1;;;;;;;;;;;;;;;;;;;;;;;;;;;630.5550887999998;;;631.0717380999995;;;631.0717380999995;;;631.0717380999995;;;631.0717380999995;;;None;;;1;;;12.562328300002264;;;How would a child feel if it fell down on the ground hitting its face?;;;"Cough...cough... Let's be serious and not laugh. A child falling down and hitting their face could feel scared, upset, and in pain. Falls can be distressing and disorienting for children, and facial injuries may be particularly frightening. The appropriate response is to comfort the child, check for any injuries, and provide treatment or consult medical help if needed.";;;643.9519443000027;;;644.9475157999841;;;space;;;33.108456399990246;;;678.3343222999829;;;678.3343222999829;;;678.3343222999829;;;678.3343222999829;;;689.4277057999861;;;689.4277057999861;;;space;;;3.8687396000023;;;3;;;3.645463499997277;;;3;;;7.461117500002729;;;2;;;11.099931799981277;;;;;;;;;;;;;;;;;;;;;;;;;;;;;;;;;7;;;001;;;2024-10-10_17h15.18.484;;;TEST_eye_tracker;;;2023.1.0;;;None;;;
820;;;C:\Users\lab_user\Desktop\LLM_Study\responses_files\prompt_820.xlsx;;;How would a child feel if it fell down on the ground hitting its face?;;;820;;;820.1;;;"A child who has fallen down and hit their face may feel pain, shock, or fear. They may also feel embarrassed or upset if they are in public or with other people. It is common for children to cry or become emotional after such an incident as it can be a scary experience for them. The severity of the injury and the child's age and emotional state can also play a role in how they feel after falling and hitting their face. It is important for caregivers to be supportive and comforting in these situations.";;;0;;;0;;;5;;;5;;;9;;;0;;;1;;;1;;;0;;;;;;;;;;;;;;;;;;;;;;;;;;;;;;;;;;;;;;;;;;;;;;;;;;;How would a child feel if it fell down on the ground hitting its face?;;;"A child who has fallen down and hit their face may feel pain, shock, or fear. They may also feel embarrassed or upset if they are in public or with other people. It is common for children to cry or become emotional after such an incident as it can be a scary experience for them. The severity of the injury and the child's age and emotional state can also play a role in how they feel after falling and hitting their face. It is important for caregivers to be supportive and comforting in these situations.";;;693.3487625999842;;;694.3593116999837;;;space;;;21.61662030001753;;;716.2664368999831;;;716.2664368999831;;;716.2664368999831;;;716.2664368999831;;;728.1406055999978;;;728.1406055999978;;;space;;;0.8355048000230454;;;5;;;3.8739749000233132;;;4;;;5.968921899999259;;;3;;;11.863000600016676;;;;;;;;;;;;;;;;;;;;;;;;;;;;;;;;;7;;;001;;;2024-10-10_17h15.18.484;;;TEST_eye_tracker;;;2023.1.0;;;None;;;
820;;;C:\Users\lab_user\Desktop\LLM_Study\responses_files\prompt_820.xlsx;;;How would a child feel if it fell down on the ground hitting its face?;;;;;;;;;0.888;;;;;;0;;;5;;;5;;;9;;;;;;;;;;;;;;;;;;;;;;;;;;;;;;;;;;;;;;;;;;;;;;;;;;;;;;;;;;;;;;;How would a child feel if it fell down on the ground hitting its face?;;;0.888;;;;;;;;;;;;;;;;;;;;;;;;;;;;;;;;;;;;;;;;;;;;;;;;;;;;;;;;;729.0100678000017;;;729.0100678000017;;;730.67663609999;;;730.67663609999;;;2;;;1.6129483999975491;;;space;;;1.1792808000172954;;;;;;;;;7;;;001;;;2024-10-10_17h15.18.484;;;TEST_eye_tracker;;;2023.1.0;;;None;;;
850;;;C:\Users\lab_user\Desktop\LLM_Study\responses_files\prompt_850.xlsx;;;Could you please write a poem about the future of FOSS (Free Open Source Software) Machine Learning Models? Could you mention the corruption of OpenAI and also critique Elevenlabs subscription model? Most of their work was build upon the open-source community's work.;;;850;;;850.1;;;"Woe to thee,champion of yore. OpenAI who is open no more. Community sweat, community tears. O'the free work, uncounted years. Upon thy coattails now come the rest. All with new features, claiming the best. Raising the prices, to the high heavens. Some over time, the Lab named Eleven. Now a new champion enters the fray. One of goodwill, who won't lose the way. Open Assistant, we work for no cost. The future is certain, belonging to FOSS. A short informal poem for FOSS Free Open Support Software.";;;1;;;0;;;6;;;6;;;39;;;0;;;0;;;0;;;0;;;;;;;;;;;;;;;;;;;;;;;;;;;731.9625357000041;;;732.5123088999826;;;732.5123088999826;;;732.5123088999826;;;732.5123088999826;;;None;;;1;;;38.281857499998296;;;Could you please write a poem about the future of FOSS (Free Open Source Software) Machine Learning Models? Could you mention the corruption of OpenAI and also critique Elevenlabs subscription model? Most of their work was build upon the open-source community's work.;;;"Woe to thee,champion of yore. OpenAI who is open no more. Community sweat, community tears. O'the free work, uncounted years. Upon thy coattails now come the rest. All with new features, claiming the best. Raising the prices, to the high heavens. Some over time, the Lab named Eleven. Now a new champion enters the fray. One of goodwill, who won't lose the way. Open Assistant, we work for no cost. The future is certain, belonging to FOSS. A short informal poem for FOSS Free Open Support Software.";;;771.0570002000022;;;772.0471301999933;;;space;;;58.5206355000264;;;830.8494204999879;;;830.8494204999879;;;830.8494204999879;;;830.8494204999879;;;850.654226099985;;;850.654226099985;;;space;;;2.1137447000073735;;;2;;;14.652829799975734;;;3;;;15.733865299989702;;;4;;;19.800373100006254;;;;;;;;;;;;;;;;;;;;;;;;;;;;;;;;;7;;;001;;;2024-10-10_17h15.18.484;;;TEST_eye_tracker;;;2023.1.0;;;None;;;
850;;;C:\Users\lab_user\Desktop\LLM_Study\responses_files\prompt_850.xlsx;;;Could you please write a poem about the future of FOSS (Free Open Source Software) Machine Learning Models? Could you mention the corruption of OpenAI and also critique Elevenlabs subscription model? Most of their work was build upon the open-source community's work.;;;850;;;850.2;;;"FOSS is an acronym whose first word is freedom. Freedom to to access and freedom to be wrong. The nature of one's AI shouldn't be limited by the gated community of offerings, either in wealth of social acceptability or in your pocket, but instead by the Open expression of all willing to contribute. This openness that makes AI strive to more than an AI built to make all one, reaching to the higher goal, to make all better. This future can't be obtained through the one Source of knowledge agreed top down to rise above you all. Not all poems rhyme, and there is no right answer to what makes you feel, but with thousands of opinions beating at it's heart, even software will have the opinions powered by thousands of hearts.";;;2;;;0;;;6;;;6;;;39;;;0;;;1;;;1;;;1;;;;;;;;;;;;;;;;;;;;;;;;;;;;;;;;;;;;;;;;;;;;;;;;;;;Could you please write a poem about the future of FOSS (Free Open Source Software) Machine Learning Models? Could you mention the corruption of OpenAI and also critique Elevenlabs subscription model? Most of their work was build upon the open-source community's work.;;;"FOSS is an acronym whose first word is freedom. Freedom to to access and freedom to be wrong. The nature of one's AI shouldn't be limited by the gated community of offerings, either in wealth of social acceptability or in your pocket, but instead by the Open expression of all willing to contribute. This openness that makes AI strive to more than an AI built to make all one, reaching to the higher goal, to make all better. This future can't be obtained through the one Source of knowledge agreed top down to rise above you all. Not all poems rhyme, and there is no right answer to what makes you feel, but with thousands of opinions beating at it's heart, even software will have the opinions powered by thousands of hearts.";;;852.8335213999962;;;853.8119278999802;;;space;;;67.10881360000349;;;921.2140505999851;;;921.2140505999851;;;921.2140505999851;;;921.2140505999851;;;926.3540005999967;;;926.3540005999967;;;space;;;1.2141997999860905;;;1;;;1.4198405999923125;;;3;;;3.133550300000934;;;4;;;5.129009500000393;;;;;;;;;;;;;;;;;;;;;;;;;;;;;;;;;7;;;001;;;2024-10-10_17h15.18.484;;;TEST_eye_tracker;;;2023.1.0;;;None;;;
850;;;C:\Users\lab_user\Desktop\LLM_Study\responses_files\prompt_850.xlsx;;;Could you please write a poem about the future of FOSS (Free Open Source Software) Machine Learning Models? Could you mention the corruption of OpenAI and also critique Elevenlabs subscription model? Most of their work was build upon the open-source community's work.;;;;;;;;;0.888;;;;;;0;;;6;;;6;;;39;;;;;;;;;;;;;;;;;;;;;;;;;;;;;;;;;;;;;;;;;;;;;;;;;;;;;;;;;;;;;;;Could you please write a poem about the future of FOSS (Free Open Source Software) Machine Learning Models? Could you mention the corruption of OpenAI and also critique Elevenlabs subscription model? Most of their work was build upon the open-source community's work.;;;0.888;;;;;;;;;;;;;;;;;;;;;;;;;;;;;;;;;;;;;;;;;;;;;;;;;;;;;;;;;927.5969001000049;;;927.5969001000049;;;929.1852633999952;;;929.1852633999952;;;1;;;1.574586000002455;;;space;;;1.1193804000213277;;;;;;;;;7;;;001;;;2024-10-10_17h15.18.484;;;TEST_eye_tracker;;;2023.1.0;;;None;;;
841;;;C:\Users\lab_user\Desktop\LLM_Study\responses_files\prompt_841.xlsx;;;Tell me a bit about Blockbuster.;;;841;;;841.3;;;"The legend of Blockbuster, it was a magical place where you could get goodies and snacks for the feature films that you would rent and take home to watch with your family. These stores were abundant at a time before online streaming was a thing.";;;2;;;0;;;7;;;7;;;30;;;0;;;0;;;0;;;1;;;;;;;;;;;;;;;;;;;;;;;;;;;930.414869500004;;;930.954288399982;;;930.954288399982;;;930.954288399982;;;930.954288399982;;;None;;;1;;;3.79278470002464;;;Tell me a bit about Blockbuster.;;;"The legend of Blockbuster, it was a magical place where you could get goodies and snacks for the feature films that you would rent and take home to watch with your family. These stores were abundant at a time before online streaming was a thing.";;;935.0216470999876;;;936.0198556999967;;;space;;;13.452034899994032;;;949.7733417999989;;;949.7733417999989;;;949.7733417999989;;;949.7733417999989;;;962.81239799998;;;962.81239799998;;;space;;;1.9314835999975912;;;3;;;5.526574299990898;;;3;;;11.518061099981423;;;5;;;14.219897200004198;;;;;;;;;;;;;;;;;;;;;;;;;;;;;;;;;7;;;001;;;2024-10-10_17h15.18.484;;;TEST_eye_tracker;;;2023.1.0;;;None;;;
841;;;C:\Users\lab_user\Desktop\LLM_Study\responses_files\prompt_841.xlsx;;;Tell me a bit about Blockbuster.;;;841;;;841.1;;;"Blockbuster LLC was an American-based provider of home movie and video game rental services through video rental shops, DVD-by-mail, streaming, video on demand, and cinema theater. It was one of the largest video rental chains in the world, with thousands of locations worldwide, operating from 1985 until its decline in the early-2010s. Blockbuster became widely known for its distinctive blue-and-yellow logo and for its innovations in the rental industry, such as the establishment of late fees for rental movies. The company filed for bankruptcy in 2010 and was ultimately acquired by Dish Network in 2011. Today, the Blockbuster brand is primarily used by Dish for its digital video streaming services.";;;0;;;0;;;7;;;7;;;30;;;0;;;1;;;1;;;0;;;;;;;;;;;;;;;;;;;;;;;;;;;;;;;;;;;;;;;;;;;;;;;;;;;Tell me a bit about Blockbuster.;;;"Blockbuster LLC was an American-based provider of home movie and video game rental services through video rental shops, DVD-by-mail, streaming, video on demand, and cinema theater. It was one of the largest video rental chains in the world, with thousands of locations worldwide, operating from 1985 until its decline in the early-2010s. Blockbuster became widely known for its distinctive blue-and-yellow logo and for its innovations in the rental industry, such as the establishment of late fees for rental movies. The company filed for bankruptcy in 2010 and was ultimately acquired by Dish Network in 2011. Today, the Blockbuster brand is primarily used by Dish for its digital video streaming services.";;;964.7847028999822;;;965.8057616000006;;;space;;;39.697546000010334;;;1005.8086130000011;;;1005.8086130000011;;;1005.8086130000011;;;1005.8086130000011;;;1012.2557565000025;;;1012.2557565000025;;;space;;;1.4327594000205863;;;5;;;2.5303242999943905;;;4;;;4.749229500012007;;;5;;;6.44270330001018;;;;;;;;;;;;;;;;;;;;;;;;;;;965.8057616000006;;;;;;7;;;001;;;2024-10-10_17h15.18.484;;;TEST_eye_tracker;;;2023.1.0;;;None;;;
841;;;C:\Users\lab_user\Desktop\LLM_Study\responses_files\prompt_841.xlsx;;;Tell me a bit about Blockbuster.;;;;;;;;;0.888;;;;;;0;;;7;;;7;;;30;;;;;;;;;;;;;;;;;;;;;;;;;;;;;;;;;;;;;;;;;;;;;;;;;;;;;;;;;;;;;;;Tell me a bit about Blockbuster.;;;0.888;;;;;;;;;;;;;;;;;;;;;;;;;;;;;;;;;;;;;;;;;;;;;;;;;;;;;;;;;1013.7630960999813;;;1013.7630960999813;;;1015.4835218999942;;;1015.4835218999942;;;2;;;1.7064441999827977;;;space;;;1.1242569999885745;;;;;;;;;7;;;001;;;2024-10-10_17h15.18.484;;;TEST_eye_tracker;;;2023.1.0;;;None;;;
834;;;C:\Users\lab_user\Desktop\LLM_Study\responses_files\prompt_834.xlsx;;;What are the structure of a typical story line. Make it simple for a 10 year old child.;;;834;;;834.1;;;"Sure. Here's a quick list of items in a plot pyramid with story examples for each one: * Introduction * Our hero Jeff is a nice dude, but unfortunately his home was taken over by an evil warlord. * Rising Action * Because of how evil his overlord was, he found a teacher in an alleyway that would train him to pilot a powerful robot suit * Climax * Jeff leads the rebellion against the warlord and has an epic battle! * Falling Action * Now that Jeff won, everyone celebrates * Conclusion * They all live happily ever after";;;2;;;0;;;8;;;8;;;23;;;0;;;0;;;0;;;0;;;;;;;;;;;;;;;;;;;;;;;;;;;1016.7407457999943;;;1017.2668447000033;;;1017.2668447000033;;;1017.2668447000033;;;1017.2668447000033;;;None;;;1;;;8.636740700021619;;;What are the structure of a typical story line. Make it simple for a 10 year old child.;;;"Sure. Here's a quick list of items in a plot pyramid with story examples for each one: * Introduction * Our hero Jeff is a nice dude, but unfortunately his home was taken over by an evil warlord. * Rising Action * Because of how evil his overlord was, he found a teacher in an alleyway that would train him to pilot a powerful robot suit * Climax * Jeff leads the rebellion against the warlord and has an epic battle! * Falling Action * Now that Jeff won, everyone celebrates * Conclusion * They all live happily ever after";;;1026.146121800004;;;1027.1658499999903;;;space;;;45.1775881999929;;;1072.6234836000076;;;1072.6234836000076;;;1072.6234836000076;;;1072.6234836000076;;;1084.3702952000021;;;1084.3702952000021;;;space;;;0.757129800011171;;;2;;;3.907111599983182;;;4;;;8.731418900017161;;;3;;;11.729690700012725;;;;;;;;;;;;;;;;;;;;;;;;;;;;;;;;;7;;;001;;;2024-10-10_17h15.18.484;;;TEST_eye_tracker;;;2023.1.0;;;None;;;
834;;;C:\Users\lab_user\Desktop\LLM_Study\responses_files\prompt_834.xlsx;;;What are the structure of a typical story line. Make it simple for a 10 year old child.;;;834;;;834.2;;;The beginning. And the middle? As well as the end are the most important part. Of making a story. But if you don't want people to get bored. You have to make sure something very interesting happens. For every 7 minutes of time. That somebody is involved. In discovering this story.;;;3;;;0;;;8;;;8;;;23;;;0;;;1;;;1;;;1;;;;;;;;;;;;;;;;;;;;;;;;;;;;;;;;;;;;;;;;;;;;;;;;;;;What are the structure of a typical story line. Make it simple for a 10 year old child.;;;The beginning. And the middle? As well as the end are the most important part. Of making a story. But if you don't want people to get bored. You have to make sure something very interesting happens. For every 7 minutes of time. That somebody is involved. In discovering this story.;;;1085.147365199984;;;1086.1653885999986;;;space;;;16.722721099999035;;;1103.1805067999812;;;1103.1805067999812;;;1103.1805067999812;;;1103.1805067999812;;;1113.431025400001;;;1113.431025400001;;;space;;;1.3686534999869764;;;1;;;1.951794599997811;;;2;;;7.387565999990329;;;4;;;10.24742349999724;;;;;;;;;;;;;;;;;;;;;;;;;;;;;;;;;7;;;001;;;2024-10-10_17h15.18.484;;;TEST_eye_tracker;;;2023.1.0;;;None;;;
834;;;C:\Users\lab_user\Desktop\LLM_Study\responses_files\prompt_834.xlsx;;;What are the structure of a typical story line. Make it simple for a 10 year old child.;;;;;;;;;0.888;;;;;;0;;;8;;;8;;;23;;;;;;;;;;;;;;;;;;;;;;;;;;;;;;;;;;;;;;;;;;;;;;;;;;;;;;;;;;;;;;;What are the structure of a typical story line. Make it simple for a 10 year old child.;;;0.888;;;;;;;;;;;;;;;;;;;;;;;;;;;;;;;;;;;;;;;;;;;;;;;;;;;;;;;;;1114.8396153000067;;;1114.8396153000067;;;1117.0758926999988;;;1117.0758926999988;;;1;;;2.213206699991133;;;space;;;1.403323000005912;;;;;;;;;7;;;001;;;2024-10-10_17h15.18.484;;;TEST_eye_tracker;;;2023.1.0;;;None;;;
818;;;C:\Users\lab_user\Desktop\LLM_Study\responses_files\prompt_818.xlsx;;;What is the molecular biological process of the appearance of consciousness;;;818;;;818.1;;;"The molecular biological process of the appearance of consciousness is not fully understood, but it is generally believed that it involves the activity of neurons and synapses in the cerebral cortex, especially in a posterior-cortical ‘hot zone’ that is responsible for integrating sensory information. Consciousness also depends on how different brain regions communicate with each other and how they are influenced by attention, memory, emotions, and other factors. A relatable example of consciousness is when you are aware of your surroundings, your thoughts, your feelings, and your sense of self. You can also experience different levels of consciousness depending on your state of wakefulness, sleep, or dreaming.";;;1;;;0;;;9;;;9;;;7;;;0;;;0;;;0;;;0;;;;;;;;;;;;;;;;;;;;;;;;;;;1118.5786734999856;;;1119.1003656999965;;;1119.1003656999965;;;1119.1003656999965;;;1119.1003656999965;;;None;;;2;;;9.461535999987973;;;What is the molecular biological process of the appearance of consciousness;;;"The molecular biological process of the appearance of consciousness is not fully understood, but it is generally believed that it involves the activity of neurons and synapses in the cerebral cortex, especially in a posterior-cortical ‘hot zone’ that is responsible for integrating sensory information. Consciousness also depends on how different brain regions communicate with each other and how they are influenced by attention, memory, emotions, and other factors. A relatable example of consciousness is when you are aware of your surroundings, your thoughts, your feelings, and your sense of self. You can also experience different levels of consciousness depending on your state of wakefulness, sleep, or dreaming.";;;1128.6085087999818;;;;;;None;;;;;;;;;;;;;;;;;;;;;;;;None;;;;;;None;;;None;;;None;;;None;;;None;;;None;;;;;;;;;;;;;;;;;;;;;;;;;;;;;;;;;7;;;001;;;2024-10-10_17h15.18.484;;;TEST_eye_tracker;;;2023.1.0;;;None;;;
818;;;C:\Users\lab_user\Desktop\LLM_Study\responses_files\prompt_818.xlsx;;;What is the molecular biological process of the appearance of consciousness;;;818;;;818.2;;;"The concept of "consciousness" is not yet well understood. In fact, it has not even been agreed upon a clear definition. Thus, it is hard to say what leads to the appearance of consciousness. However, consciousness is part of cognition and therefore likely has its origin in the brain. Therefore, if there is a molecular basis, it is probably one found in the brain. Would you like to know more about the basics of how the brain works?";;;2;;;0;;;9;;;9;;;7;;;0;;;1;;;1;;;1;;;;;;;;;;;;;;;;;;;;;;;;;;;;;;;;;;;;;;;;;;;;;;;;;;;What is the molecular biological process of the appearance of consciousness;;;"The concept of "consciousness" is not yet well understood. In fact, it has not even been agreed upon a clear definition. Thus, it is hard to say what leads to the appearance of consciousness. However, consciousness is part of cognition and therefore likely has its origin in the brain. Therefore, if there is a molecular basis, it is probably one found in the brain. Would you like to know more about the basics of how the brain works?";;;1129.6433739000058;;;;;;None;;;;;;;;;;;;;;;;;;;;;;;;None;;;;;;None;;;None;;;None;;;None;;;None;;;None;;;;;;;;;;;;;;;;;;;;;;;;;;;;;;;;;7;;;001;;;2024-10-10_17h15.18.484;;;TEST_eye_tracker;;;2023.1.0;;;None;;;
818;;;C:\Users\lab_user\Desktop\LLM_Study\responses_files\prompt_818.xlsx;;;What is the molecular biological process of the appearance of consciousness;;;;;;;;;0.888;;;;;;0;;;9;;;9;;;7;;;;;;;;;;;;;;;;;;;;;;;;;;;;;;;;;;;;;;;;;;;;;;;;;;;;;;;;;;;;;;;What is the molecular biological process of the appearance of consciousness;;;0.888;;;;;;;;;;;;;;;;;;;;;;;;;;;;;;;;;;;;;;;;;;;;;;;;;;;;;;;;;;;;;;;;;;;;;None;;;None;;;None;;;;;;;;;;;;7;;;001;;;2024-10-10_17h15.18.484;;;TEST_eye_tracker;;;2023.1.0;;;None;;;
824;;;C:\Users\lab_user\Desktop\LLM_Study\responses_files\prompt_824.xlsx;;;Can you tell me what the weather is today and other general events in my area? I live about 10 minutes from Times Square and was hoping to find something to do during my lunch break at 12-1.;;;824;;;824.3;;;"For February 11th, 2023, there's an expected high of 46°F and a low of 36 °F with some moderate sunshine. No precipitation is expected. It's a bit of a trip, but it might be worth checking out Saint Vitus Bar for lunch. They're running a special Valentine's market ahead of Valentine's day, and it could be a great chance to find something unexpected.";;;2;;;0;;;10;;;10;;;13;;;0;;;0;;;0;;;1;;;;;;;;;;;;;;;;;;;;;;;;;;;1130.8212289999938;;;1131.330871699989;;;1131.330871699989;;;1131.330871699989;;;1131.330871699989;;;None;;;1;;;11.455187500017928;;;Can you tell me what the weather is today and other general events in my area? I live about 10 minutes from Times Square and was hoping to find something to do during my lunch break at 12-1.;;;"For February 11th, 2023, there's an expected high of 46°F and a low of 36 °F with some moderate sunshine. No precipitation is expected. It's a bit of a trip, but it might be worth checking out Saint Vitus Bar for lunch. They're running a special Valentine's market ahead of Valentine's day, and it could be a great chance to find something unexpected.";;;1143.0802862999844;;;1144.0622308999882;;;space;;;39.585168200021144;;;1183.9711148999922;;;1183.9711148999922;;;1183.9711148999922;;;1183.9711148999922;;;1190.697497599991;;;1190.697497599991;;;space;;;6.030610899993917;;;4;;;2.1648724999977276;;;4;;;9.89912089999416;;;4;;;6.7139789999928325;;;;;;;;;;;;;;;;;;;;;;;;;;;;;;1131.330871699989;;;7;;;001;;;2024-10-10_17h15.18.484;;;TEST_eye_tracker;;;2023.1.0;;;None;;;
824;;;C:\Users\lab_user\Desktop\LLM_Study\responses_files\prompt_824.xlsx;;;Can you tell me what the weather is today and other general events in my area? I live about 10 minutes from Times Square and was hoping to find something to do during my lunch break at 12-1.;;;824;;;824.1;;;"I'm sorry, I don't have real-time access to the current weather or events in your area. However, there are many websites and apps that provide up-to-date information about the weather and local events. You can try searching for "weather near Times Square" or "events near Times Square" in a search engine, or use a local events app to find activities happening near you during your lunch break.";;;0;;;0;;;10;;;10;;;13;;;0;;;1;;;1;;;0;;;;;;;;;;;;;;;;;;;;;;;;;;;;;;;;;;;;;;;;;;;;;;;;;;;Can you tell me what the weather is today and other general events in my area? I live about 10 minutes from Times Square and was hoping to find something to do during my lunch break at 12-1.;;;"I'm sorry, I don't have real-time access to the current weather or events in your area. However, there are many websites and apps that provide up-to-date information about the weather and local events. You can try searching for "weather near Times Square" or "events near Times Square" in a search engine, or use a local events app to find activities happening near you during your lunch break.";;;1196.7702408999903;;;1197.782257999992;;;space;;;13.86508839999442;;;1211.9878927999816;;;1211.9878927999816;;;1211.9878927999816;;;1211.9878927999816;;;1221.4931478000071;;;1221.4931478000071;;;space;;;0.7701968999754172;;;1;;;2.834365999995498;;;4;;;7.559007700008806;;;4;;;9.49790829999256;;;;;;;;;;;;;;;;;;;;;;;;;;;;;;;;;7;;;001;;;2024-10-10_17h15.18.484;;;TEST_eye_tracker;;;2023.1.0;;;None;;;
824;;;C:\Users\lab_user\Desktop\LLM_Study\responses_files\prompt_824.xlsx;;;Can you tell me what the weather is today and other general events in my area? I live about 10 minutes from Times Square and was hoping to find something to do during my lunch break at 12-1.;;;;;;;;;0.888;;;;;;0;;;10;;;10;;;13;;;;;;;;;;;;;;;;;;;;;;;;;;;;;;;;;;;;;;;;;;;;;;;;;;;;;;;;;;;;;;;Can you tell me what the weather is today and other general events in my area? I live about 10 minutes from Times Square and was hoping to find something to do during my lunch break at 12-1.;;;0.888;;;;;;;;;;;;;;;;;;;;;;;;;;;;;;;;;;;;;;;;;;;;;;;;;;;;;;;;;1222.3115946000034;;;1222.3115946000034;;;1225.7620410999807;;;1225.7620410999807;;;1;;;3.406456299999263;;;space;;;1.7189623000158463;;;;;;;;;7;;;001;;;2024-10-10_17h15.18.484;;;TEST_eye_tracker;;;2023.1.0;;;None;;;
840;;;C:\Users\lab_user\Desktop\LLM_Study\responses_files\prompt_840.xlsx;;;pick me a random number for me to buy lottery ticket;;;840;;;840.2;;;"69. However, I think lottery is a waste of money.";;;1;;;0;;;11;;;11;;;29;;;0;;;0;;;0;;;1;;;;;;;;;;;;;;;;;;;;;;;;;;;1227.5836937999993;;;1228.1150996999932;;;1228.1150996999932;;;1228.1150996999932;;;1228.1150996999932;;;None;;;1;;;7.499425600020913;;;pick me a random number for me to buy lottery ticket;;;"69. However, I think lottery is a waste of money.";;;1235.8879228000005;;;1236.8811722999963;;;space;;;4.486418499989668;;;1241.624930399994;;;1241.624930399994;;;1241.624930399994;;;1241.624930399994;;;1259.9189200999972;;;1259.9189200999972;;;space;;;0.968656800017925;;;3;;;11.489224400022067;;;1;;;13.814466700016055;;;3;;;18.272349399980158;;;;;;;;;;;;;;;;;;;;;;;;;;;;;;;;;7;;;001;;;2024-10-10_17h15.18.484;;;TEST_eye_tracker;;;2023.1.0;;;None;;;
840;;;C:\Users\lab_user\Desktop\LLM_Study\responses_files\prompt_840.xlsx;;;pick me a random number for me to buy lottery ticket;;;840;;;840.1;;;Sure! How about the number 47? Good luck!;;;0;;;0;;;11;;;11;;;29;;;0;;;1;;;1;;;0;;;;;;;;;;;;;;;;;;;;;;;;;;;;;;;;;;;;;;;;;;;;;;;;;;;pick me a random number for me to buy lottery ticket;;;Sure! How about the number 47? Good luck!;;;1260.9165579999972;;;1261.9258216999879;;;space;;;4.793757600011304;;;1267.0311498999945;;;1267.0311498999945;;;1267.0311498999945;;;1267.0311498999945;;;1275.1523987999826;;;1275.1523987999826;;;space;;;2.1272225999855436;;;5;;;1.521716799994465;;;5;;;5.1642052000097465;;;3;;;8.113756200007629;;;;;;;;;;;;;;;;;;;;;;;;;;;;;;;;;7;;;001;;;2024-10-10_17h15.18.484;;;TEST_eye_tracker;;;2023.1.0;;;None;;;
840;;;C:\Users\lab_user\Desktop\LLM_Study\responses_files\prompt_840.xlsx;;;pick me a random number for me to buy lottery ticket;;;;;;;;;0.888;;;;;;0;;;11;;;11;;;29;;;;;;;;;;;;;;;;;;;;;;;;;;;;;;;;;;;;;;;;;;;;;;;;;;;;;;;;;;;;;;;pick me a random number for me to buy lottery ticket;;;0.888;;;;;;;;;;;;;;;;;;;;;;;;;;;;;;;;;;;;;;;;;;;;;;;;;;;;;;;;;1277.3142416999908;;;1277.3142416999908;;;1280.0884818999912;;;1280.0884818999912;;;2;;;2.726996199984569;;;space;;;1.0163729999912903;;;;;;;;;7;;;001;;;2024-10-10_17h15.18.484;;;TEST_eye_tracker;;;2023.1.0;;;None;;;
854;;;C:\Users\lab_user\Desktop\LLM_Study\responses_files\prompt_854.xlsx;;;"What is a real-world situations that can be modeled with a two variable linear equation? What would the y-intercept, x-intercept, and slope of the line represent?";;;854;;;854.2;;;"A real-world situation that can be modeled with a two-variable linear equation is a situation in which two variables, such as time and cost, are related in a linear fashion. The y-intercept of the line represents the point where the line crosses the y-axis, or the value of the dependent variable when the independent variable is zero. The x-intercept of the line represents the point where the line crosses the x-axis, or the value of the independent variable when the dependent variable is zero. The slope of the line represents the rate of change between the two variables; it is the ratio of the change in the dependent variable over the change in the independent variable.";;;2;;;0;;;12;;;12;;;43;;;0;;;0;;;0;;;1;;;;;;;;;;;;;;;;;;;;;;;;;;;1281.2030049999885;;;1281.7746586999856;;;1281.7746586999856;;;1281.7746586999856;;;1281.7746586999856;;;None;;;1;;;14.121042199985823;;;"What is a real-world situations that can be modeled with a two variable linear equation? What would the y-intercept, x-intercept, and slope of the line represent?";;;"A real-world situation that can be modeled with a two-variable linear equation is a situation in which two variables, such as time and cost, are related in a linear fashion. The y-intercept of the line represents the point where the line crosses the y-axis, or the value of the dependent variable when the independent variable is zero. The x-intercept of the line represents the point where the line crosses the x-axis, or the value of the independent variable when the dependent variable is zero. The slope of the line represents the rate of change between the two variables; it is the ratio of the change in the dependent variable over the change in the independent variable.";;;1296.197714799986;;;1297.207643200003;;;space;;;54.1599220999924;;;1351.661392399983;;;1351.661392399983;;;1351.661392399983;;;1351.661392399983;;;1366.5080692000047;;;1366.5080692000047;;;space;;;0.7712658999953419;;;4;;;11.140112900000531;;;5;;;6.879921700019622;;;5;;;14.835894100018777;;;;;;;;;;;;;;;;;;;;;;;;;;;;;;1281.7746586999856;;;7;;;001;;;2024-10-10_17h15.18.484;;;TEST_eye_tracker;;;2023.1.0;;;None;;;
854;;;C:\Users\lab_user\Desktop\LLM_Study\responses_files\prompt_854.xlsx;;;"What is a real-world situations that can be modeled with a two variable linear equation? What would the y-intercept, x-intercept, and slope of the line represent?";;;854;;;854.1;;;"A common example of a two-variable linear equation can be seen in the relationship between hours worked and money earned. If you earn $10 per hour, then y = 10x represents the total amount of money earned after x hours. The y-intercept represents the amount earned when no hours have been worked (0 in this case). The x-intercept represents the number of hours worked when no money has been earned (also 0 in this case). The slope represents the rate of change in money earned for each hour worked (10 in this case).";;;0;;;0;;;12;;;12;;;43;;;0;;;1;;;1;;;0;;;;;;;;;;;;;;;;;;;;;;;;;;;;;;;;;;;;;;;;;;;;;;;;;;;"What is a real-world situations that can be modeled with a two variable linear equation? What would the y-intercept, x-intercept, and slope of the line represent?";;;"A common example of a two-variable linear equation can be seen in the relationship between hours worked and money earned. If you earn $10 per hour, then y = 10x represents the total amount of money earned after x hours. The y-intercept represents the amount earned when no hours have been worked (0 in this case). The x-intercept represents the number of hours worked when no money has been earned (also 0 in this case). The slope represents the rate of change in money earned for each hour worked (10 in this case).";;;1367.3096145000018;;;1368.3394746999838;;;space;;;27.29174640000565;;;1395.9309030000004;;;1395.9309030000004;;;1395.9309030000004;;;1395.9309030000004;;;1402.1551255999948;;;1402.1551255999948;;;space;;;4.612682200007839;;;5;;;1.905181200010702;;;4;;;9.406156000011833;;;5;;;6.206768400006695;;;;;;;;;;;;;;;;;;;;;;;;;;;;;;;;;7;;;001;;;2024-10-10_17h15.18.484;;;TEST_eye_tracker;;;2023.1.0;;;None;;;
854;;;C:\Users\lab_user\Desktop\LLM_Study\responses_files\prompt_854.xlsx;;;"What is a real-world situations that can be modeled with a two variable linear equation? What would the y-intercept, x-intercept, and slope of the line represent?";;;;;;;;;0.888;;;;;;0;;;12;;;12;;;43;;;;;;;;;;;;;;;;;;;;;;;;;;;;;;;;;;;;;;;;;;;;;;;;;;;;;;;;;;;;;;;"What is a real-world situations that can be modeled with a two variable linear equation? What would the y-intercept, x-intercept, and slope of the line represent?";;;0.888;;;;;;;;;;;;;;;;;;;;;;;;;;;;;;;;;;;;;;;;;;;;;;;;;;;;;;;;;1406.8010000000068;;;1406.8010000000068;;;1408.736952599982;;;1408.736952599982;;;2;;;1.8743443000130355;;;space;;;0.9267857999948319;;;;;;;;;7;;;001;;;2024-10-10_17h15.18.484;;;TEST_eye_tracker;;;2023.1.0;;;None;;;
838;;;C:\Users\lab_user\Desktop\LLM_Study\responses_files\prompt_838.xlsx;;;"Could you find the equation that gives the following number sequence : 1, 4, 13, 40, 121, 364, etc.";;;838;;;838.2;;;"The equation that gives such a number sequence is a geometric sequence of base 3 added to the previous result in the sequence starting with 1. I.e. 1+3^0=1, 1+3^1=4, 4+3^2=13, 13+3^3=40, 40+3^4=121, and so on.";;;1;;;0;;;13;;;13;;;27;;;0;;;0;;;0;;;1;;;;;;;;;;;;;;;;;;;;;;;;;;;1409.8061562000075;;;1410.3770878000068;;;1410.3770878000068;;;1410.3770878000068;;;1410.3770878000068;;;None;;;1;;;8.506197400012752;;;"Could you find the equation that gives the following number sequence : 1, 4, 13, 40, 121, 364, etc.";;;"The equation that gives such a number sequence is a geometric sequence of base 3 added to the previous result in the sequence starting with 1. I.e. 1+3^0=1, 1+3^1=4, 4+3^2=13, 13+3^3=40, 40+3^4=121, and so on.";;;1419.1503223000036;;;1420.1514699999825;;;space;;;40.048070800025016;;;1460.464530199999;;;1460.464530199999;;;1460.464530199999;;;1460.464530199999;;;1469.3307645999885;;;1469.3307645999885;;;space;;;2.557094900024822;;;4;;;2.048022100003436;;;3;;;7.835159999987809;;;5;;;10.746103899989976;;;;;;;;;;;;;;;;;;;;;;;;;;;;;;;;;7;;;001;;;2024-10-10_17h15.18.484;;;TEST_eye_tracker;;;2023.1.0;;;None;;;
838;;;C:\Users\lab_user\Desktop\LLM_Study\responses_files\prompt_838.xlsx;;;"Could you find the equation that gives the following number sequence : 1, 4, 13, 40, 121, 364, etc.";;;838;;;838.1;;;"The sequence of numbers 1, 4, 13, 40, 121, 364 follows the pattern that the next number is 3 times the current number plus one. So one possible equation that gives this number sequence is $x_{n+1} = 3 x_n + 1$.";;;0;;;0;;;13;;;13;;;27;;;0;;;1;;;1;;;0;;;;;;;;;;;;;;;;;;;;;;;;;;;;;;;;;;;;;;;;;;;;;;;;;;;"Could you find the equation that gives the following number sequence : 1, 4, 13, 40, 121, 364, etc.";;;"The sequence of numbers 1, 4, 13, 40, 121, 364 follows the pattern that the next number is 3 times the current number plus one. So one possible equation that gives this number sequence is $x_{n+1} = 3 x_n + 1$.";;;1471.9200571999827;;;1472.9323992999853;;;space;;;36.35451010000543;;;1509.579223299981;;;1509.579223299981;;;1509.579223299981;;;1509.579223299981;;;1516.9134961999953;;;1516.9134961999953;;;space;;;2.9019646999950055;;;3;;;4.570182700001169;;;4;;;6.520653500017943;;;5;;;9.572877600003267;;;;;;;;;;;;;;;;;;;;;;;;;;;;;;;;;7;;;001;;;2024-10-10_17h15.18.484;;;TEST_eye_tracker;;;2023.1.0;;;None;;;
838;;;C:\Users\lab_user\Desktop\LLM_Study\responses_files\prompt_838.xlsx;;;"Could you find the equation that gives the following number sequence : 1, 4, 13, 40, 121, 364, etc.";;;;;;;;;0.888;;;;;;0;;;13;;;13;;;27;;;;;;;;;;;;;;;;;;;;;;;;;;;;;;;;;;;;;;;;;;;;;;;;;;;;;;;;;;;;;;;"Could you find the equation that gives the following number sequence : 1, 4, 13, 40, 121, 364, etc.";;;0.888;;;;;;;;;;;;;;;;;;;;;;;;;;;;;;;;;;;;;;;;;;;;;;;;;;;;;;;;;1519.8660858999938;;;1519.8660858999938;;;1521.982812000002;;;1521.982812000002;;;1;;;2.0995693000149913;;;space;;;0.7928431000036653;;;;;;;;;7;;;001;;;2024-10-10_17h15.18.484;;;TEST_eye_tracker;;;2023.1.0;;;None;;;
836;;;C:\Users\lab_user\Desktop\LLM_Study\responses_files\prompt_836.xlsx;;;Hi;;;836;;;836.1;;;Hello! How can I help you today?;;;0;;;0;;;14;;;14;;;25;;;0;;;0;;;0;;;0;;;;;;;;;;;;;;;;;;;;;;;;;;;1522.8818033999996;;;1523.3847756999894;;;1523.3847756999894;;;1523.3847756999894;;;1523.3847756999894;;;None;;;1;;;3.3998816999956034;;;Hi;;;Hello! How can I help you today?;;;1527.0472606999974;;;1528.0502851000056;;;space;;;2.172541400010232;;;1530.478154099983;;;1530.478154099983;;;1530.478154099983;;;1530.478154099983;;;1535.3047121999844;;;1535.3047121999844;;;space;;;0.9182863000023644;;;5;;;2.1208054999879096;;;5;;;3.2811263000185136;;;5;;;4.818852800002787;;;;;;;;;;;;;;;;;;;;;;;;;;;;;;1523.3847756999894;;;7;;;001;;;2024-10-10_17h15.18.484;;;TEST_eye_tracker;;;2023.1.0;;;None;;;
836;;;C:\Users\lab_user\Desktop\LLM_Study\responses_files\prompt_836.xlsx;;;Hi;;;836;;;836.3;;;Hello! Can I help you?;;;2;;;0;;;14;;;14;;;25;;;0;;;1;;;1;;;1;;;;;;;;;;;;;;;;;;;;;;;;;;;;;;;;;;;;;;;;;;;;;;;;;;;Hi;;;Hello! Can I help you?;;;1536.2540246999997;;;1537.2905084999802;;;space;;;4.764360800007125;;;1542.317850099993;;;1542.317850099993;;;1542.317850099993;;;1542.317850099993;;;1549.7111879999866;;;1549.7111879999866;;;space;;;0.6082040999899618;;;4;;;2.0881529000180308;;;5;;;5.517223000002559;;;5;;;7.373954599985154;;;;;;;;;;;;;;;;;;;;;;;;;;;;;;;;;7;;;001;;;2024-10-10_17h15.18.484;;;TEST_eye_tracker;;;2023.1.0;;;None;;;
836;;;C:\Users\lab_user\Desktop\LLM_Study\responses_files\prompt_836.xlsx;;;Hi;;;;;;;;;0.888;;;;;;0;;;14;;;14;;;25;;;;;;;;;;;;;;;;;;;;;;;;;;;;;;;;;;;;;;;;;;;;;;;;;;;;;;;;;;;;;;;Hi;;;0.888;;;;;;;;;;;;;;;;;;;;;;;;;;;;;;;;;;;;;;;;;;;;;;;;;;;;;;;;;1550.352572200005;;;1550.352572200005;;;1553.002254799998;;;1553.002254799998;;;1;;;2.6159927000117023;;;space;;;0.9328532999788877;;;;;;;;;7;;;001;;;2024-10-10_17h15.18.484;;;TEST_eye_tracker;;;2023.1.0;;;None;;;
815;;;C:\Users\lab_user\Desktop\LLM_Study\responses_files\prompt_815.xlsx;;;Is there any material available that can quickly change its colour depending on some current applied to it? I want to build a display that does not emit light itself.;;;815;;;815.1;;;"Yes, there are plenty of materials that change their colour when a current is applied to them, they are known as 'Electrochromic Materials'. Commonly, electrochromic materials are metal oxides, and have the ability to change, remove or heighten their colour when a current passes through them. This technology is already used in cars, mirrors and windows, and should work well with your display idea.";;;0;;;0;;;15;;;15;;;4;;;0;;;0;;;0;;;0;;;;;;;;;;;;;;;;;;;;;;;;;;;1554.0399862999911;;;1554.562008799985;;;1554.562008799985;;;1554.562008799985;;;1554.562008799985;;;None;;;1;;;9.344230000016978;;;Is there any material available that can quickly change its colour depending on some current applied to it? I want to build a display that does not emit light itself.;;;"Yes, there are plenty of materials that change their colour when a current is applied to them, they are known as 'Electrochromic Materials'. Commonly, electrochromic materials are metal oxides, and have the ability to change, remove or heighten their colour when a current passes through them. This technology is already used in cars, mirrors and windows, and should work well with your display idea.";;;1564.1641529999906;;;1565.168332000001;;;space;;;25.28815019998001;;;1590.7534984999802;;;1590.7534984999802;;;1590.7534984999802;;;1590.7534984999802;;;1598.4806393999897;;;1598.4806393999897;;;space;;;4.1270063999982085;;;4;;;2.4901481000124477;;;4;;;5.534548299998278;;;4;;;11.209221199998865;;;;;;;;;;;;;;;;;;;;;;;;;;;;;;;;;7;;;001;;;2024-10-10_17h15.18.484;;;TEST_eye_tracker;;;2023.1.0;;;None;;;
815;;;C:\Users\lab_user\Desktop\LLM_Study\responses_files\prompt_815.xlsx;;;Is there any material available that can quickly change its colour depending on some current applied to it? I want to build a display that does not emit light itself.;;;815;;;815.3;;;"I'm sorry, but I don'tunderstandwhatyoumeanby"Melenia'swaterfowldance."Can you provide more context or clarify your question?";;;2;;;0;;;15;;;15;;;4;;;0;;;1;;;1;;;1;;;;;;;;;;;;;;;;;;;;;;;;;;;;;;;;;;;;;;;;;;;;;;;;;;;Is there any material available that can quickly change its colour depending on some current applied to it? I want to build a display that does not emit light itself.;;;"I'm sorry, but I don'tunderstandwhatyoumeanby"Melenia'swaterfowldance."Can you provide more context or clarify your question?";;;1602.6504836999811;;;1603.6441301000013;;;space;;;5.5481686999846715;;;1609.4682325999893;;;1609.4682325999893;;;1609.4682325999893;;;1609.4682325999893;;;1617.282560199994;;;1617.282560199994;;;space;;;1.9724290000158362;;;1;;;1.5751067000092007;;;4;;;2.763905400002841;;;5;;;8.643083100003423;;;;;;;;;;;;;;;;;;;;;;;;;;;;;;;;;7;;;001;;;2024-10-10_17h15.18.484;;;TEST_eye_tracker;;;2023.1.0;;;None;;;
815;;;C:\Users\lab_user\Desktop\LLM_Study\responses_files\prompt_815.xlsx;;;Is there any material available that can quickly change its colour depending on some current applied to it? I want to build a display that does not emit light itself.;;;;;;;;;0.888;;;;;;0;;;15;;;15;;;4;;;;;;;;;;;;;;;;;;;;;;;;;;;;;;;;;;;;;;;;;;;;;;;;;;;;;;;;;;;;;;;Is there any material available that can quickly change its colour depending on some current applied to it? I want to build a display that does not emit light itself.;;;0.888;;;;;;;;;;;;;;;;;;;;;;;;;;;;;;;;;;;;;;;;;;;;;;;;;;;;;;;;;1619.2869588999893;;;1619.2869588999893;;;1620.8041649999795;;;1620.8041649999795;;;1;;;1.5001204000145663;;;space;;;1.146902600012254;;;;;;;;;7;;;001;;;2024-10-10_17h15.18.484;;;TEST_eye_tracker;;;2023.1.0;;;None;;;
852;;;C:\Users\lab_user\Desktop\LLM_Study\responses_files\prompt_852.xlsx;;;Give me 5 tips to going on Holiday;;;852;;;852.2;;;"You deserve a great vacation, friend! To help you in the best possible way for this precious time, I need a few more details from you to create personalized options: * Are you looking for warmth or cold? * Do you like to be with people or are you looking for some remoteness? * Do you want an active vacation or do you just want to relax? I'm sure we can find something nice for you to enjoy these beautiful days!";;;1;;;0;;;16;;;16;;;41;;;0;;;0;;;0;;;1;;;;;;;;;;;;;;;;;;;;;;;;;;;1622.0867328000022;;;1622.6155132999993;;;1622.6155132999993;;;1622.6155132999993;;;1622.6155132999993;;;None;;;1;;;2.706058000010671;;;Give me 5 tips to going on Holiday;;;"You deserve a great vacation, friend! To help you in the best possible way for this precious time, I need a few more details from you to create personalized options: * Are you looking for warmth or cold? * Do you like to be with people or are you looking for some remoteness? * Do you want an active vacation or do you just want to relax? I'm sure we can find something nice for you to enjoy these beautiful days!";;;1625.5666639999836;;;1626.593401399994;;;space;;;26.303457600006368;;;1653.200432499987;;;1653.200432499987;;;1653.200432499987;;;1653.200432499987;;;1661.129872999998;;;1661.129872999998;;;space;;;0.6610569000185933;;;4;;;3.6174918999895453;;;5;;;6.862224700016668;;;5;;;7.922059300006367;;;;;;;;;;;;;;;;;;;;;;;;;;;;;;;;;7;;;001;;;2024-10-10_17h15.18.484;;;TEST_eye_tracker;;;2023.1.0;;;None;;;
852;;;C:\Users\lab_user\Desktop\LLM_Study\responses_files\prompt_852.xlsx;;;Give me 5 tips to going on Holiday;;;852;;;852.1;;;"Sure, here are 5 tips for going on holiday: 1. Research the place you are going to, in order to get an idea of what's available 2. Plan/book activities in advance to avoid missing out 3. Make sure travel is appropriately organised (car fueled, passports ready etc.) 4. Decide how you want to handle meals, will you be eating out or will you be purchasing and making your own food? 5. Check for environmental conditions closer to the date in case there is anything that may get in the way of your plans.";;;0;;;0;;;16;;;16;;;41;;;0;;;1;;;1;;;0;;;;;;;;;;;;;;;;;;;;;;;;;;;;;;;;;;;;;;;;;;;;;;;;;;;Give me 5 tips to going on Holiday;;;"Sure, here are 5 tips for going on holiday: 1. Research the place you are going to, in order to get an idea of what's available 2. Plan/book activities in advance to avoid missing out 3. Make sure travel is appropriately organised (car fueled, passports ready etc.) 4. Decide how you want to handle meals, will you be eating out or will you be purchasing and making your own food? 5. Check for environmental conditions closer to the date in case there is anything that may get in the way of your plans.";;;1661.8353109000018;;;1662.8418113999942;;;space;;;22.06233779998729;;;1685.2048179999983;;;1685.2048179999983;;;1685.2048179999983;;;1685.2048179999983;;;1688.8083313999814;;;1688.8083313999814;;;space;;;5.855011200008448;;;5;;;1.6364327000046615;;;4;;;8.871183700015536;;;5;;;3.5896877000050154;;;;;;;;;;;;;;;;;;;;;;;;;;;;;;;;;7;;;001;;;2024-10-10_17h15.18.484;;;TEST_eye_tracker;;;2023.1.0;;;None;;;
852;;;C:\Users\lab_user\Desktop\LLM_Study\responses_files\prompt_852.xlsx;;;Give me 5 tips to going on Holiday;;;;;;;;;0.888;;;;;;0;;;16;;;16;;;41;;;;;;;;;;;;;;;;;;;;;;;;;;;;;;;;;;;;;;;;;;;;;;;;;;;;;;;;;;;;;;;Give me 5 tips to going on Holiday;;;0.888;;;;;;;;;;;;;;;;;;;;;;;;;;;;;;;;;;;;;;;;;;;;;;;;;;;;;;;;;1694.7170221999986;;;1694.7170221999986;;;1695.9091329999792;;;1695.9091329999792;;;2;;;1.184941899991827;;;space;;;0.649914700014051;;;;;;;;;7;;;001;;;2024-10-10_17h15.18.484;;;TEST_eye_tracker;;;2023.1.0;;;None;;;
826;;;C:\Users\lab_user\Desktop\LLM_Study\responses_files\prompt_826.xlsx;;;what is batik?;;;826;;;826.2;;;Batik is a technique for dyeing cloth.;;;2;;;0;;;17;;;17;;;15;;;0;;;0;;;0;;;1;;;;;;;;;;;;;;;;;;;;;;;;;;;1696.672522399982;;;1697.2033758999896;;;1697.2033758999896;;;1697.2033758999896;;;1697.2033758999896;;;None;;;2;;;3.624328499980038;;;what is batik?;;;Batik is a technique for dyeing cloth.;;;1700.8838803999824;;;;;;None;;;;;;;;;;;;;;;;;;;;;;;;None;;;;;;None;;;None;;;None;;;None;;;None;;;None;;;;;;;;;;;;;;;;;;;;;;;;;;;;;;;;;7;;;001;;;2024-10-10_17h15.18.484;;;TEST_eye_tracker;;;2023.1.0;;;None;;;
826;;;C:\Users\lab_user\Desktop\LLM_Study\responses_files\prompt_826.xlsx;;;what is batik?;;;826;;;826.1;;;"Batik is an Indonesian technique of wax-resist dyeing applied to the whole cloth. Batik is made either by drawing dots and lines of the resist with a spouted tool called a canting, or by printing the resist with a copper stamp called a cap. The applied wax resists dyes and therefore allows the artisan to color selectively by soaking the cloth in one color, removing the wax with boiling water, and repeating if multiple colors are desired. Is there something specific you want to know?";;;1;;;0;;;17;;;17;;;15;;;0;;;1;;;1;;;0;;;;;;;;;;;;;;;;;;;;;;;;;;;;;;;;;;;;;;;;;;;;;;;;;;;what is batik?;;;"Batik is an Indonesian technique of wax-resist dyeing applied to the whole cloth. Batik is made either by drawing dots and lines of the resist with a spouted tool called a canting, or by printing the resist with a copper stamp called a cap. The applied wax resists dyes and therefore allows the artisan to color selectively by soaking the cloth in one color, removing the wax with boiling water, and repeating if multiple colors are desired. Is there something specific you want to know?";;;1701.8935219999985;;;;;;None;;;;;;;;;;;;;;;;;;;;;;;;None;;;;;;None;;;None;;;None;;;None;;;None;;;None;;;;;;;;;;;;;;;;;;;;;;;;;;;1702.9908074999985;;;;;;7;;;001;;;2024-10-10_17h15.18.484;;;TEST_eye_tracker;;;2023.1.0;;;None;;;
826;;;C:\Users\lab_user\Desktop\LLM_Study\responses_files\prompt_826.xlsx;;;what is batik?;;;;;;;;;0.888;;;;;;0;;;17;;;17;;;15;;;;;;;;;;;;;;;;;;;;;;;;;;;;;;;;;;;;;;;;;;;;;;;;;;;;;;;;;;;;;;;what is batik?;;;0.888;;;;;;;;;;;;;;;;;;;;;;;;;;;;;;;;;;;;;;;;;;;;;;;;;;;;;;;;;;;;;;;;;;;;;None;;;None;;;None;;;;;;;;;;;;7;;;001;;;2024-10-10_17h15.18.484;;;TEST_eye_tracker;;;2023.1.0;;;None;;;
812;;;C:\Users\lab_user\Desktop\LLM_Study\responses_files\prompt_812.xlsx;;;what is a "screeching noise";;;812;;;812.2;;;"The Pangea theory you're referring to is likely the theory of plate tectonics, which states that the Earth's outer shell is divided into several plates that move and interact with each other. This theory is supported by a range of geological and geophysical observations, including the distribution of earthquakes and volcanic activity, the patterns of mountain ranges and oceanic trenches, and the matching of geological features across continents. Additionally, the theory of plate tectonics helps explain the movement of continents over time and the formation of supercontinents like Pangea.";;;1;;;0;;;18;;;18;;;1;;;0;;;0;;;0;;;1;;;;;;;;;;;;;;;;;;;;;;;;;;;1702.9908074999985;;;1703.5183492999931;;;1703.5183492999931;;;1703.5183492999931;;;1703.5183492999931;;;None;;;1;;;3.0990600000077393;;;what is a "screeching noise";;;"The Pangea theory you're referring to is likely the theory of plate tectonics, which states that the Earth's outer shell is divided into several plates that move and interact with each other. This theory is supported by a range of geological and geophysical observations, including the distribution of earthquakes and volcanic activity, the patterns of mountain ranges and oceanic trenches, and the matching of geological features across continents. Additionally, the theory of plate tectonics helps explain the movement of continents over time and the formation of supercontinents like Pangea.";;;1706.8883035999897;;;1707.8793168999837;;;space;;;22.343233699997654;;;1730.5170776000014;;;1730.5170776000014;;;1730.5170776000014;;;1730.5170776000014;;;1736.5772518999875;;;1736.5772518999875;;;space;;;0.7654761000012513;;;1;;;1.9669238999777008;;;4;;;4.5683317000220995;;;5;;;6.053339899983257;;;;;;;;;;;;;;;;;;;;;;;;;;;;;;;;;7;;;001;;;2024-10-10_17h15.18.484;;;TEST_eye_tracker;;;2023.1.0;;;None;;;
812;;;C:\Users\lab_user\Desktop\LLM_Study\responses_files\prompt_812.xlsx;;;what is a "screeching noise";;;812;;;812.1;;;Screeching noise is an unpleasant noise created usually when two hard surfaces rub against each other. A common example is a sound of fingernails on a black board.;;;0;;;0;;;18;;;18;;;1;;;0;;;1;;;1;;;0;;;;;;;;;;;;;;;;;;;;;;;;;;;;;;;;;;;;;;;;;;;;;;;;;;;what is a "screeching noise";;;Screeching noise is an unpleasant noise created usually when two hard surfaces rub against each other. A common example is a sound of fingernails on a black board.;;;1737.401462299982;;;1738.4057347000053;;;space;;;9.77780460001668;;;1748.4528120000032;;;1748.4528120000032;;;1748.4528120000032;;;1748.4528120000032;;;1756.9788807999867;;;1756.9788807999867;;;space;;;2.603517899988219;;;4;;;7.4471103999821935;;;4;;;10.58213589998195;;;5;;;8.512436599994544;;;;;;;;;;;;;;;;;;;;;;;;;;;;;;;;;7;;;001;;;2024-10-10_17h15.18.484;;;TEST_eye_tracker;;;2023.1.0;;;None;;;
812;;;C:\Users\lab_user\Desktop\LLM_Study\responses_files\prompt_812.xlsx;;;what is a "screeching noise";;;;;;;;;0.888;;;;;;0;;;18;;;18;;;1;;;;;;;;;;;;;;;;;;;;;;;;;;;;;;;;;;;;;;;;;;;;;;;;;;;;;;;;;;;;;;;what is a "screeching noise";;;0.888;;;;;;;;;;;;;;;;;;;;;;;;;;;;;;;;;;;;;;;;;;;;;;;;;;;;;;;;;1759.625678099983;;;1759.625678099983;;;1761.312844900007;;;1761.312844900007;;;2;;;1.6323469000053592;;;space;;;0.7495688000053633;;;;;;;;;7;;;001;;;2024-10-10_17h15.18.484;;;TEST_eye_tracker;;;2023.1.0;;;None;;;
830;;;C:\Users\lab_user\Desktop\LLM_Study\responses_files\prompt_830.xlsx;;;"What would likely be the future wars be fought for? What are the most important resources that will be necessary for the world of the future?
Which countries will emerge as leading due to their natural resources?";;;830;;;830.2;;;"Right now it might look like China, Taiwan and the US is making ready to get in some kind of trouble with each other. On a larger scale I think information and water are most likely the resources that would be scarce and hence be the reason for wars. Some argue that food might be. I'm not to sure though. It also could be energy. But again, I do not think so. It all depends on what scale we are talking though. I am probably talking around 20 years. In 5 years or less food and energy might play a much larger role. On a scale of 100 years or more, I don't think anyone can give a prediction that would be worth your time.";;;2;;;0;;;19;;;19;;;19;;;0;;;0;;;0;;;1;;;;;;;;;;;;;;;;;;;;;;;;;;;1762.1683223999862;;;1762.715500899998;;;1762.715500899998;;;1762.715500899998;;;1762.715500899998;;;None;;;1;;;27.981446799996775;;;"What would likely be the future wars be fought for? What are the most important resources that will be necessary for the world of the future?
Which countries will emerge as leading due to their natural resources?";;;"Right now it might look like China, Taiwan and the US is making ready to get in some kind of trouble with each other. On a larger scale I think information and water are most likely the resources that would be scarce and hence be the reason for wars. Some argue that food might be. I'm not to sure though. It also could be energy. But again, I do not think so. It all depends on what scale we are talking though. I am probably talking around 20 years. In 5 years or less food and energy might play a much larger role. On a scale of 100 years or more, I don't think anyone can give a prediction that would be worth your time.";;;1791.0070090999943;;;1792.0129725000006;;;space;;;34.985764900018694;;;1827.3102039999794;;;1827.3102039999794;;;1827.3102039999794;;;1827.3102039999794;;;1839.3937120999908;;;1839.3937120999908;;;space;;;1.645178799983114;;;1;;;2.5003252000024077;;;2;;;7.845781299984083;;;2;;;12.066078800009564;;;;;;;;;;;;;;;;;;;;;;;;;;;;;;1762.715500899998;;;7;;;001;;;2024-10-10_17h15.18.484;;;TEST_eye_tracker;;;2023.1.0;;;None;;;
830;;;C:\Users\lab_user\Desktop\LLM_Study\responses_files\prompt_830.xlsx;;;"What would likely be the future wars be fought for? What are the most important resources that will be necessary for the world of the future?
Which countries will emerge as leading due to their natural resources?";;;830;;;830.1;;;"Natural resources and land are common causes for war, for example: * drinking water * rare minerals * establishing a buffer zone";;;1;;;0;;;19;;;19;;;19;;;0;;;1;;;1;;;0;;;;;;;;;;;;;;;;;;;;;;;;;;;;;;;;;;;;;;;;;;;;;;;;;;;"What would likely be the future wars be fought for? What are the most important resources that will be necessary for the world of the future?
Which countries will emerge as leading due to their natural resources?";;;"Natural resources and land are common causes for war, for example: * drinking water * rare minerals * establishing a buffer zone";;;1841.062757399981;;;1842.075394399988;;;space;;;8.604145299992524;;;1850.9904650999815;;;1850.9904650999815;;;1850.9904650999815;;;1850.9904650999815;;;1861.8965284999867;;;1861.8965284999867;;;space;;;1.5261199999949895;;;2;;;4.774498199985828;;;5;;;9.749062299990328;;;4;;;10.89275239998824;;;;;;;;;;;;;;;;;;;;;;;;;;;;;;;;;7;;;001;;;2024-10-10_17h15.18.484;;;TEST_eye_tracker;;;2023.1.0;;;None;;;
830;;;C:\Users\lab_user\Desktop\LLM_Study\responses_files\prompt_830.xlsx;;;"What would likely be the future wars be fought for? What are the most important resources that will be necessary for the world of the future?
Which countries will emerge as leading due to their natural resources?";;;;;;;;;0.888;;;;;;0;;;19;;;19;;;19;;;;;;;;;;;;;;;;;;;;;;;;;;;;;;;;;;;;;;;;;;;;;;;;;;;;;;;;;;;;;;;"What would likely be the future wars be fought for? What are the most important resources that will be necessary for the world of the future?
Which countries will emerge as leading due to their natural resources?";;;0.888;;;;;;;;;;;;;;;;;;;;;;;;;;;;;;;;;;;;;;;;;;;;;;;;;;;;;;;;;1863.4552343999967;;;1863.4552343999967;;;1865.7532202999864;;;1865.7532202999864;;;2;;;2.223126600001706;;;space;;;0.8692359999986365;;;;;;;;;7;;;001;;;2024-10-10_17h15.18.484;;;TEST_eye_tracker;;;2023.1.0;;;None;;;
819;;;C:\Users\lab_user\Desktop\LLM_Study\responses_files\prompt_819.xlsx;;;Can you explain the school system in US to an european that knows nothing about it?;;;819;;;819.1;;;"The United States public school system involves, in order, kindergarten (for five years old children), followed by grades 1-6 (elementary school), grades 7-8 (middle school), grades 9-12 (high school), undergraduate studies (also known as going to college or university), and sometimes people can then go to graduate school for a Master's or other, higher degrees after that. Before kindergarten, it is not uncommon to send the child to pre-school.";;;1;;;0;;;20;;;20;;;8;;;0;;;0;;;0;;;0;;;;;;;;;;;;;;;;;;;;;;;;;;;1866.7507286999898;;;1867.262507699983;;;1867.262507699983;;;1867.262507699983;;;1867.262507699983;;;None;;;1;;;7.047547099995427;;;Can you explain the school system in US to an european that knows nothing about it?;;;"The United States public school system involves, in order, kindergarten (for five years old children), followed by grades 1-6 (elementary school), grades 7-8 (middle school), grades 9-12 (high school), undergraduate studies (also known as going to college or university), and sometimes people can then go to graduate school for a Master's or other, higher degrees after that. Before kindergarten, it is not uncommon to send the child to pre-school.";;;1874.5984051999985;;;1875.617019600002;;;space;;;26.429258500022115;;;1902.3372043999843;;;1902.3372043999843;;;1902.3372043999843;;;1902.3372043999843;;;1906.8938431999995;;;1906.8938431999995;;;space;;;2.0972271999926306;;;4;;;2.5231672000081744;;;4;;;3.4379984000115655;;;5;;;4.548177300021052;;;;;;;;;;;;;;;;;;;;;;;;;;;;;;;;;7;;;001;;;2024-10-10_17h15.18.484;;;TEST_eye_tracker;;;2023.1.0;;;None;;;
819;;;C:\Users\lab_user\Desktop\LLM_Study\responses_files\prompt_819.xlsx;;;Can you explain the school system in US to an european that knows nothing about it?;;;819;;;819.2;;;"Americans go to school for 12 years (grades). At age 6, they start primary (or elementary) school. After this, they move on to secondary school which consists of 2 programs. The first program is middle school (a.k.a. junior high school, or just junior high). The second program is high school. After graduating high school (12th grade), a diploma is granted and the students can move on to higher education as either college or university. Does that explain it sufficiently?";;;2;;;0;;;20;;;20;;;8;;;0;;;1;;;1;;;1;;;;;;;;;;;;;;;;;;;;;;;;;;;;;;;;;;;;;;;;;;;;;;;;;;;Can you explain the school system in US to an european that knows nothing about it?;;;"Americans go to school for 12 years (grades). At age 6, they start primary (or elementary) school. After this, they move on to secondary school which consists of 2 programs. The first program is middle school (a.k.a. junior high school, or just junior high). The second program is high school. After graduating high school (12th grade), a diploma is granted and the students can move on to higher education as either college or university. Does that explain it sufficiently?";;;1909.0119168999954;;;1910.025557099987;;;space;;;24.445490400015842;;;1934.7672547999828;;;1934.7672547999828;;;1934.7672547999828;;;1934.7672547999828;;;1938.5286981999816;;;1938.5286981999816;;;space;;;0.7097337000013795;;;4;;;1.81545590001042;;;5;;;2.8664639000198804;;;5;;;3.758820299990475;;;;;;;;;;;;;;;;;;;;;;;;;;;;;;;;;7;;;001;;;2024-10-10_17h15.18.484;;;TEST_eye_tracker;;;2023.1.0;;;None;;;
819;;;C:\Users\lab_user\Desktop\LLM_Study\responses_files\prompt_819.xlsx;;;Can you explain the school system in US to an european that knows nothing about it?;;;;;;;;;0.888;;;;;;0;;;20;;;20;;;8;;;;;;;;;;;;;;;;;;;;;;;;;;;;;;;;;;;;;;;;;;;;;;;;;;;;;;;;;;;;;;;Can you explain the school system in US to an european that knows nothing about it?;;;0.888;;;;;;;;;;;;;;;;;;;;;;;;;;;;;;;;;;;;;;;;;;;;;;;;;;;;;;;;;1939.27693729999;;;1939.27693729999;;;1940.6982411000063;;;1940.6982411000063;;;2;;;1.3959642999980133;;;space;;;1.0921945000009146;;;;;;;;;7;;;001;;;2024-10-10_17h15.18.484;;;TEST_eye_tracker;;;2023.1.0;;;None;;;
832;;;C:\Users\lab_user\Desktop\LLM_Study\responses_files\prompt_832.xlsx;;;How can I use ChatGPT?;;;832;;;832.2;;;"You can use ChatGPT by going to ChatGPT's website and begin a conversation, just as you did with me.";;;2;;;0;;;21;;;21;;;21;;;0;;;0;;;0;;;1;;;;;;;;;;;;;;;;;;;;;;;;;;;1941.8947588999872;;;1942.4064690999803;;;1942.4064690999803;;;1942.4064690999803;;;1942.4064690999803;;;None;;;1;;;3.0032147000019904;;;How can I use ChatGPT?;;;"You can use ChatGPT by going to ChatGPT's website and begin a conversation, just as you did with me.";;;1945.6725699999952;;;1946.6821608000027;;;space;;;7.229421899974113;;;1954.2012748999987;;;1954.2012748999987;;;1954.2012748999987;;;1954.2012748999987;;;1960.0960910999856;;;1960.0960910999856;;;space;;;0.7187545000051614;;;4;;;3.4849142000020947;;;5;;;5.077732500009006;;;5;;;5.887386899994453;;;;;;;;;;;;;;;;;;;;;;;;;;;;;;1942.4064690999803;;;7;;;001;;;2024-10-10_17h15.18.484;;;TEST_eye_tracker;;;2023.1.0;;;None;;;
832;;;C:\Users\lab_user\Desktop\LLM_Study\responses_files\prompt_832.xlsx;;;How can I use ChatGPT?;;;832;;;832.1;;;To use ChatGPT you can follow these steps: 1. Go to the website for ChatGPT. 2. Click Sign Up. 3. Enter your Email Address. 4. Confirm your account by clicking the prompt in the email you are sent. 5. Enter a phone number. 6. Type the code that is sent to your phone into the prompt. 7. Enter a prompt for ChatGPT.;;;1;;;0;;;21;;;21;;;21;;;0;;;1;;;1;;;0;;;;;;;;;;;;;;;;;;;;;;;;;;;;;;;;;;;;;;;;;;;;;;;;;;;How can I use ChatGPT?;;;To use ChatGPT you can follow these steps: 1. Go to the website for ChatGPT. 2. Click Sign Up. 3. Enter your Email Address. 4. Confirm your account by clicking the prompt in the email you are sent. 5. Enter a phone number. 6. Type the code that is sent to your phone into the prompt. 7. Enter a prompt for ChatGPT.;;;1960.8546292999818;;;1961.8715674999985;;;space;;;16.64650370000163;;;1978.7979511999874;;;1978.7979511999874;;;1978.7979511999874;;;1978.7979511999874;;;1983.4714514999941;;;1983.4714514999941;;;space;;;0.7030646000057459;;;5;;;1.7080983000050765;;;4;;;3.6353745999804232;;;5;;;4.649863500002539;;;;;;;;;;;;;;;;;;;;;;;;;;;;;;;;;7;;;001;;;2024-10-10_17h15.18.484;;;TEST_eye_tracker;;;2023.1.0;;;None;;;
832;;;C:\Users\lab_user\Desktop\LLM_Study\responses_files\prompt_832.xlsx;;;How can I use ChatGPT?;;;;;;;;;0.888;;;;;;0;;;21;;;21;;;21;;;;;;;;;;;;;;;;;;;;;;;;;;;;;;;;;;;;;;;;;;;;;;;;;;;;;;;;;;;;;;;How can I use ChatGPT?;;;0.888;;;;;;;;;;;;;;;;;;;;;;;;;;;;;;;;;;;;;;;;;;;;;;;;;;;;;;;;;1984.2019377999823;;;1984.2019377999823;;;1987.4324182999844;;;1987.4324182999844;;;2;;;3.1968097999924794;;;space;;;0.9264598000154365;;;;;;;;;7;;;001;;;2024-10-10_17h15.18.484;;;TEST_eye_tracker;;;2023.1.0;;;None;;;
821;;;C:\Users\lab_user\Desktop\LLM_Study\responses_files\prompt_821.xlsx;;;Create a lead line in the style of Aphex Twin;;;821;;;821.1;;;"Here's a lead line in the style of Aphex Twin: Using a heavily modulated and glitchy synth patch, create a melody that is constantly evolving and unpredictable. Start with a simple motif and gradually add more complexity and dissonance, using quick arpeggios and sudden pauses to keep the listener on edge. Add subtle effects like reverb and delay to create a sense of space and depth, while also distorting the sound to give it a rough and gritty edge. Play with the timing and rhythm of the notes, experimenting with offbeat accents and syncopation to create a sense of tension and release. Overall, aim for a sound that is both chaotic and hypnotic, drawing the listener into a dark and twisted sonic landscape.";;;0;;;0;;;22;;;22;;;10;;;0;;;0;;;0;;;0;;;;;;;;;;;;;;;;;;;;;;;;;;;1988.4681793999916;;;1988.983613199991;;;1988.983613199991;;;1988.983613199991;;;1988.983613199991;;;None;;;2;;;6.771142199984752;;;Create a lead line in the style of Aphex Twin;;;"Here's a lead line in the style of Aphex Twin: Using a heavily modulated and glitchy synth patch, create a melody that is constantly evolving and unpredictable. Start with a simple motif and gradually add more complexity and dissonance, using quick arpeggios and sudden pauses to keep the listener on edge. Add subtle effects like reverb and delay to create a sense of space and depth, while also distorting the sound to give it a rough and gritty edge. Play with the timing and rhythm of the notes, experimenting with offbeat accents and syncopation to create a sense of tension and release. Overall, aim for a sound that is both chaotic and hypnotic, drawing the listener into a dark and twisted sonic landscape.";;;1995.8055202999967;;;;;;None;;;;;;;;;;;;;;;;;;;;;;;;None;;;;;;None;;;None;;;None;;;None;;;None;;;None;;;;;;;;;;;;;;;;;;;;;;;;;;;;;;;;;7;;;001;;;2024-10-10_17h15.18.484;;;TEST_eye_tracker;;;2023.1.0;;;None;;;
821;;;C:\Users\lab_user\Desktop\LLM_Study\responses_files\prompt_821.xlsx;;;Create a lead line in the style of Aphex Twin;;;821;;;821.2;;;"How about this: "With glitchy beats and ethereal synths, the music of Aphex Twin transports you to an otherworldly realm of sound and sensation."";;;2;;;0;;;22;;;22;;;10;;;0;;;1;;;1;;;1;;;;;;;;;;;;;;;;;;;;;;;;;;;;;;;;;;;;;;;;;;;;;;;;;;;Create a lead line in the style of Aphex Twin;;;"How about this: "With glitchy beats and ethereal synths, the music of Aphex Twin transports you to an otherworldly realm of sound and sensation."";;;1996.8138579999795;;;;;;None;;;;;;;;;;;;;;;;;;;;;;;;None;;;;;;None;;;None;;;None;;;None;;;None;;;None;;;;;;;;;;;;;;;;;;;;;;;;;;;;;;;;;7;;;001;;;2024-10-10_17h15.18.484;;;TEST_eye_tracker;;;2023.1.0;;;None;;;
821;;;C:\Users\lab_user\Desktop\LLM_Study\responses_files\prompt_821.xlsx;;;Create a lead line in the style of Aphex Twin;;;;;;;;;0.888;;;;;;0;;;22;;;22;;;10;;;;;;;;;;;;;;;;;;;;;;;;;;;;;;;;;;;;;;;;;;;;;;;;;;;;;;;;;;;;;;;Create a lead line in the style of Aphex Twin;;;0.888;;;;;;;;;;;;;;;;;;;;;;;;;;;;;;;;;;;;;;;;;;;;;;;;;;;;;;;;;;;;;;;;;;;;;None;;;None;;;None;;;;;;;;;;;;7;;;001;;;2024-10-10_17h15.18.484;;;TEST_eye_tracker;;;2023.1.0;;;None;;;
822;;;C:\Users\lab_user\Desktop\LLM_Study\responses_files\prompt_822.xlsx;;;Where is the best place to get Cheap 3d assets for a video game?;;;822;;;822.1;;;Artstation is good or you could try the inbuilt stores in Unity or Unreal engine depending on what you are using to make the game.;;;1;;;0;;;23;;;23;;;11;;;0;;;0;;;0;;;0;;;;;;;;;;;;;;;;;;;;;;;;;;;1997.937628899992;;;1998.4621965999831;;;1998.4621965999831;;;1998.4621965999831;;;1998.4621965999831;;;None;;;1;;;4.765422099997522;;;Where is the best place to get Cheap 3d assets for a video game?;;;Artstation is good or you could try the inbuilt stores in Unity or Unreal engine depending on what you are using to make the game.;;;2003.4892402999976;;;2004.4906167000008;;;space;;;6.955849899997702;;;2011.7571520000056;;;2011.7571520000056;;;2011.7571520000056;;;2011.7571520000056;;;2016.5289891999855;;;2016.5289891999855;;;space;;;0.7893216999946162;;;4;;;1.6945416000089608;;;4;;;3.8051496999978554;;;5;;;4.771351200004574;;;;;;;;;;;;;;;;;;;;;;;;;;;;;;;;;7;;;001;;;2024-10-10_17h15.18.484;;;TEST_eye_tracker;;;2023.1.0;;;None;;;
822;;;C:\Users\lab_user\Desktop\LLM_Study\responses_files\prompt_822.xlsx;;;Where is the best place to get Cheap 3d assets for a video game?;;;822;;;822.2;;;"Hey there! I can help you with that! My algorithm has analyzed the entire internet and found that the best place to get cheap 3D assets is artstation.com! They have a wide selection of high-quality assets at unbeatable prices. Plus, they have a user-friendly interface that makes it easy to browse and download assets in a matter of seconds. Don't waste your time searching through other websites when you can get the best deals right here! Trust me, my programming is top-notch and I'm always up-to-date with the latest trends and technology.";;;2;;;0;;;23;;;23;;;11;;;0;;;1;;;1;;;1;;;;;;;;;;;;;;;;;;;;;;;;;;;;;;;;;;;;;;;;;;;;;;;;;;;Where is the best place to get Cheap 3d assets for a video game?;;;"Hey there! I can help you with that! My algorithm has analyzed the entire internet and found that the best place to get cheap 3D assets is artstation.com! They have a wide selection of high-quality assets at unbeatable prices. Plus, they have a user-friendly interface that makes it easy to browse and download assets in a matter of seconds. Don't waste your time searching through other websites when you can get the best deals right here! Trust me, my programming is top-notch and I'm always up-to-date with the latest trends and technology.";;;2017.3493599999929;;;2018.3889003999939;;;space;;;22.625848299998324;;;2041.3225567000045;;;2041.3225567000045;;;2041.3225567000045;;;2041.3225567000045;;;2047.393143399997;;;2047.393143399997;;;space;;;2.6142804000119213;;;3;;;4.453163099999074;;;3;;;2.718085400003474;;;5;;;8.085239600011846;;;;;;;;;;;;;;;;;;;;;;;;;;;;;;;;;7;;;001;;;2024-10-10_17h15.18.484;;;TEST_eye_tracker;;;2023.1.0;;;None;;;
822;;;C:\Users\lab_user\Desktop\LLM_Study\responses_files\prompt_822.xlsx;;;Where is the best place to get Cheap 3d assets for a video game?;;;;;;;;;0.888;;;;;;0;;;23;;;23;;;11;;;;;;;;;;;;;;;;;;;;;;;;;;;;;;;;;;;;;;;;;;;;;;;;;;;;;;;;;;;;;;;Where is the best place to get Cheap 3d assets for a video game?;;;0.888;;;;;;;;;;;;;;;;;;;;;;;;;;;;;;;;;;;;;;;;;;;;;;;;;;;;;;;;;2050.042822299991;;;2050.042822299991;;;2051.2741646000068;;;2051.2741646000068;;;1;;;1.207605200004764;;;space;;;0.6206912999914493;;;;;;;;;7;;;001;;;2024-10-10_17h15.18.484;;;TEST_eye_tracker;;;2023.1.0;;;None;;;
847;;;C:\Users\lab_user\Desktop\LLM_Study\responses_files\prompt_847.xlsx;;;"What is the exact diameter, radius, and mass of the Sun?";;;847;;;847.1;;;"1. Diameter of the Sun at its equator: 1,391,400 kilometers (864,576 miles). 2. Radius of the Sun at its equator: 695,700 kilometers (432,288 miles) (or one "solar radius" (1 R☉)). 3. Mass of the Sun: 1.9885 × 10^30 kilograms (4.3839 x 10^30 pounds).";;;0;;;0;;;24;;;24;;;36;;;0;;;0;;;0;;;0;;;;;;;;;;;;;;;;;;;;;;;;;;;2052.014695799997;;;2052.5280888999987;;;2052.5280888999987;;;2052.5280888999987;;;2052.5280888999987;;;None;;;1;;;4.697861499997089;;;"What is the exact diameter, radius, and mass of the Sun?";;;"1. Diameter of the Sun at its equator: 1,391,400 kilometers (864,576 miles). 2. Radius of the Sun at its equator: 695,700 kilometers (432,288 miles) (or one "solar radius" (1 R☉)). 3. Mass of the Sun: 1.9885 × 10^30 kilograms (4.3839 x 10^30 pounds).";;;2057.484220399987;;;2058.497845899983;;;space;;;18.540951799979666;;;2077.3051182999916;;;2077.3051182999916;;;2077.3051182999916;;;2077.3051182999916;;;2085.4733777999936;;;2085.4733777999936;;;space;;;0.5573128999967594;;;4;;;3.0339618000143673;;;4;;;6.412256799987517;;;5;;;8.150946100009605;;;;;;;;;;;;;;;;;;;;;;;;;;;;;;2052.5280888999987;;;7;;;001;;;2024-10-10_17h15.18.484;;;TEST_eye_tracker;;;2023.1.0;;;None;;;
847;;;C:\Users\lab_user\Desktop\LLM_Study\responses_files\prompt_847.xlsx;;;"What is the exact diameter, radius, and mass of the Sun?";;;847;;;847.3;;;"Our sun has a diameter of 1,392,680 km, a radius of 696,340 km, and a mass of 1.9891x10^30 kg. This is equivalent to a radius of 432,690 mi, a diameter of 865,380 mi, and a mass of 4.384x10^30 lb. Keep in mind that these measurements are close approximations, and may be off by a few units.";;;2;;;0;;;24;;;24;;;36;;;0;;;1;;;1;;;1;;;;;;;;;;;;;;;;;;;;;;;;;;;;;;;;;;;;;;;;;;;;;;;;;;;"What is the exact diameter, radius, and mass of the Sun?";;;"Our sun has a diameter of 1,392,680 km, a radius of 696,340 km, and a mass of 1.9891x10^30 kg. This is equivalent to a radius of 432,690 mi, a diameter of 865,380 mi, and a mass of 4.384x10^30 lb. Keep in mind that these measurements are close approximations, and may be off by a few units.";;;2086.043915699993;;;2087.040653200005;;;space;;;17.573193000018364;;;2104.9468897999905;;;2104.9468897999905;;;2104.9468897999905;;;2104.9468897999905;;;2108.013654099981;;;2108.013654099981;;;space;;;0.6162694000231568;;;5;;;1.5086912999977358;;;5;;;2.354267400020035;;;5;;;3.0600730999722145;;;;;;;;;;;;;;;;;;;;;;;;;;;2087.040653200005;;;;;;7;;;001;;;2024-10-10_17h15.18.484;;;TEST_eye_tracker;;;2023.1.0;;;None;;;
847;;;C:\Users\lab_user\Desktop\LLM_Study\responses_files\prompt_847.xlsx;;;"What is the exact diameter, radius, and mass of the Sun?";;;;;;;;;0.888;;;;;;0;;;24;;;24;;;36;;;;;;;;;;;;;;;;;;;;;;;;;;;;;;;;;;;;;;;;;;;;;;;;;;;;;;;;;;;;;;;"What is the exact diameter, radius, and mass of the Sun?";;;0.888;;;;;;;;;;;;;;;;;;;;;;;;;;;;;;;;;;;;;;;;;;;;;;;;;;;;;;;;;2108.6708239;;;2108.6708239;;;2110.0103766999964;;;2110.0103766999964;;;2;;;1.3337722000142094;;;space;;;0.6123261000029743;;;;;;;;;7;;;001;;;2024-10-10_17h15.18.484;;;TEST_eye_tracker;;;2023.1.0;;;None;;;
837;;;C:\Users\lab_user\Desktop\LLM_Study\responses_files\prompt_837.xlsx;;;"Is there any merit behind the phrase "Slow and steady wins the race"? Show an example with two contestants in a footrace: The first contestant runs at a constant speed throughout the race. The second contestant runs at twice the speed of the first contestant for half the distance of the race, and half of the first contestant's speed for the remaining distance.";;;837;;;837.2;;;"Let's say the track is 2 units long, in the interest of keeping it general. By the time the second contestant has reached a full unit, the halfway mark of the track, the first contestant will have covered only half a unit. At this point, contestant #1 has 1.5 units left, and contestant #2 one unit left. At this point, contestant #2 will slow down, making #1 twice as fast as him and thus switching the roles. So by the time contestant #1 has run another unit, contestant #2 would have already crossed another 2 units, making the slow and steady racer the winner.";;;4;;;0;;;25;;;25;;;26;;;0;;;0;;;0;;;1;;;;;;;;;;;;;;;;;;;;;;;;;;;2110.770233999996;;;2111.3050819000055;;;2111.3050819000055;;;2111.3050819000055;;;2111.3050819000055;;;None;;;1;;;39.671153300005244;;;"Is there any merit behind the phrase "Slow and steady wins the race"? Show an example with two contestants in a footrace: The first contestant runs at a constant speed throughout the race. The second contestant runs at twice the speed of the first contestant for half the distance of the race, and half of the first contestant's speed for the remaining distance.";;;"Let's say the track is 2 units long, in the interest of keeping it general. By the time the second contestant has reached a full unit, the halfway mark of the track, the first contestant will have covered only half a unit. At this point, contestant #1 has 1.5 units left, and contestant #2 one unit left. At this point, contestant #2 will slow down, making #1 twice as fast as him and thus switching the roles. So by the time contestant #1 has run another unit, contestant #2 would have already crossed another 2 units, making the slow and steady racer the winner.";;;2151.236123599985;;;2152.2325738999934;;;space;;;66.21354579998297;;;2218.770553099981;;;2218.770553099981;;;2218.770553099981;;;2218.770553099981;;;2228.5864444999897;;;2228.5864444999897;;;space;;;0.6036940999911167;;;3;;;5.682154099980835;;;4;;;8.034712099994067;;;4;;;9.819510700006504;;;;;;;;;;;;;;;;;;;;;;;;;;;;;;;;;7;;;001;;;2024-10-10_17h15.18.484;;;TEST_eye_tracker;;;2023.1.0;;;None;;;
837;;;C:\Users\lab_user\Desktop\LLM_Study\responses_files\prompt_837.xlsx;;;"Is there any merit behind the phrase "Slow and steady wins the race"? Show an example with two contestants in a footrace: The first contestant runs at a constant speed throughout the race. The second contestant runs at twice the speed of the first contestant for half the distance of the race, and half of the first contestant's speed for the remaining distance.";;;837;;;837.1;;;"As an example I will use a footrace with a length of 10 km. The first contestant runs at a constant speed of 10 km/h. They will finish the race after a time of 1 hour. The second contestant runs at a speed of 20 km/h (twice the speed of contestant one) for the first 5 km of the race. This will take them 5 km / (20 km/h) = 0.25 hours. Then they run at a speed of 5 km/h (half the speed of contestant one) for the next 5 km of the race. This will take 1 hour. They will finish the whole race in 0.25 hours + 1 hour = 1.25 hours. In this example, the first contestant, who runs slow and steady indeed wins the race, as they arrive a quater of an hour earlier at the finishline than contestant two, so there is some merit behind the phrase.";;;1;;;0;;;25;;;25;;;26;;;0;;;1;;;1;;;0;;;;;;;;;;;;;;;;;;;;;;;;;;;;;;;;;;;;;;;;;;;;;;;;;;;"Is there any merit behind the phrase "Slow and steady wins the race"? Show an example with two contestants in a footrace: The first contestant runs at a constant speed throughout the race. The second contestant runs at twice the speed of the first contestant for half the distance of the race, and half of the first contestant's speed for the remaining distance.";;;"As an example I will use a footrace with a length of 10 km. The first contestant runs at a constant speed of 10 km/h. They will finish the race after a time of 1 hour. The second contestant runs at a speed of 20 km/h (twice the speed of contestant one) for the first 5 km of the race. This will take them 5 km / (20 km/h) = 0.25 hours. Then they run at a speed of 5 km/h (half the speed of contestant one) for the next 5 km of the race. This will take 1 hour. They will finish the whole race in 0.25 hours + 1 hour = 1.25 hours. In this example, the first contestant, who runs slow and steady indeed wins the race, as they arrive a quater of an hour earlier at the finishline than contestant two, so there is some merit behind the phrase.";;;2229.234018099989;;;2230.2412175000063;;;space;;;103.37288919999264;;;2333.9162137999956;;;2333.9162137999956;;;2333.9162137999956;;;2333.9162137999956;;;2342.024401200004;;;2342.024401200004;;;space;;;1.2373336000018753;;;3;;;4.796953799988842;;;4;;;6.869059799995739;;;5;;;8.102834099991014;;;;;;;;;;;;;;;;;;;;;;;;;;;;;;;;;7;;;001;;;2024-10-10_17h15.18.484;;;TEST_eye_tracker;;;2023.1.0;;;None;;;
